"Time (s)","Linear Acceleration x (m/s^2)","Linear Acceleration y (m/s^2)","Linear Acceleration z (m/s^2)"
4.255724100E-2,0.000000000E0,0.000000000E0,0.000000000E0
4.740765700E-2,9.680604935E-2,3.327369690E-3,1.446666718E-1
5.225729300E-2,1.255347729E-1,1.612901688E-2,3.270502090E-1
5.710781400E-2,6.311511993E-2,-5.366802216E-3,4.738359451E-1
6.195906400E-2,4.742026329E-2,-1.287555695E-2,6.207723618E-1
6.680942800E-2,1.080400944E-1,-2.784729004E-2,7.094354630E-1
7.165911600E-2,1.288838387E-1,-5.448627472E-2,7.919120789E-1
7.650958500E-2,1.424691677E-1,-7.987999916E-2,8.120975494E-1
8.136083500E-2,1.667525768E-1,-8.374214172E-2,7.330436707E-1
8.621125100E-2,2.414023876E-1,-7.529735565E-3,5.680990219E-1
9.106088700E-2,2.629172802E-1,2.028942108E-3,4.307022095E-1
9.591140700E-2,2.155506611E-1,1.357555389E-3,2.973947525E-1
1.007626050E-1,1.518743038E-1,2.471160889E-2,6.346130371E-2
1.056130740E-1,1.086194515E-1,4.235219955E-2,-1.720609665E-1
1.104626570E-1,8.090090752E-2,6.005430222E-2,-4.210071564E-1
1.153131780E-1,4.226374626E-2,7.861137390E-2,-6.469020844E-1
1.201644280E-1,1.964354515E-2,1.099295616E-1,-8.146934509E-1
1.250147930E-1,-6.969833374E-2,1.268577576E-1,-9.649534225E-1
1.298644800E-1,-1.166219711E-1,1.441025734E-1,-1.113080025E0
1.347149490E-1,-2.739243507E-1,1.482896805E-1,-1.178025246E0
1.395661990E-1,-3.483467102E-1,1.835842133E-1,-1.250685215E0
1.444165640E-1,-3.465321064E-1,1.800332069E-1,-1.294268608E0
1.492662510E-1,-3.380742073E-1,1.872801781E-1,-1.238939285E0
1.541167200E-1,-3.000721931E-1,1.428537369E-1,-1.138792992E0
1.589679700E-1,-2.698287964E-1,1.129598618E-1,-1.024802685E0
1.638184390E-1,-2.628810406E-1,6.198167801E-2,-9.220638275E-1
1.686680220E-1,-2.412467003E-1,6.532192230E-3,-7.927198410E-1
1.735185430E-1,-2.189660072E-1,-1.644945145E-2,-6.741170883E-1
1.783697410E-1,-2.190446854E-1,-5.933475494E-2,-6.092424393E-1
1.832202100E-1,-2.126708031E-1,-5.684471130E-2,-4.501581192E-1
1.880697930E-1,-1.834788322E-1,-6.393718719E-2,-3.382987976E-1
1.929203140E-1,-1.481456757E-1,-1.036987305E-1,-2.601718903E-1
1.977715640E-1,-1.296665668E-1,-1.148872375E-1,-2.051715851E-1
2.026219280E-1,-8.094906807E-2,-1.334123611E-1,-1.514635086E-1
2.074716160E-1,-3.775691986E-2,-1.335244179E-1,-1.175403595E-1
2.123220850E-1,-3.009724617E-2,-1.251554489E-1,-9.341716766E-2
2.171733350E-1,-1.760172844E-2,-1.246366501E-1,-1.022367477E-1
2.220238030E-1,-1.426029205E-2,-1.060619354E-1,-8.951663971E-2
2.268733870E-1,-1.968169212E-2,-6.529998779E-2,-8.135223389E-2
2.317239070E-1,-6.189632416E-2,-1.907014847E-2,-9.875488281E-2
2.365751050E-1,-1.028666496E-1,2.308845520E-3,-1.365633011E-1
2.414255740E-1,-1.194477081E-1,1.791954041E-3,-1.756887436E-1
2.462751570E-1,-1.263816357E-1,1.050853729E-2,-2.139453888E-1
2.511256780E-1,-1.121437550E-1,7.402420044E-3,-2.350921631E-1
2.559769280E-1,-1.123776436E-1,9.288311005E-3,-2.911319733E-1
2.608272930E-1,-1.011555195E-1,1.863765717E-2,-3.604373932E-1
2.656769800E-1,-1.278870106E-1,-9.236335754E-3,-3.888778687E-1
2.705274490E-1,-1.429793835E-1,-6.928443909E-4,-4.150686264E-1
2.753786990E-1,-1.535665989E-1,2.230358124E-2,-4.366168976E-1
2.802290640E-1,-1.575737000E-1,4.093313217E-2,-4.373664856E-1
2.850787510E-1,-2.392733097E-1,2.702569962E-2,-3.823451996E-1
2.899292720E-1,-2.096121311E-1,3.501892090E-2,-3.829221725E-1
2.947804700E-1,-1.764450073E-1,3.383255005E-2,-3.769283295E-1
2.996309390E-1,-1.397309303E-1,2.137041092E-2,-3.409910202E-1
3.044805220E-1,-7.097172737E-2,6.891250610E-3,-3.247194290E-1
3.093310430E-1,-5.972385406E-3,6.846427917E-3,-2.854042053E-1
3.141822930E-1,-1.070976257E-2,2.097606659E-3,-2.634477615E-1
3.190326570E-1,-3.654694557E-2,-1.922798157E-2,-2.065572739E-1
3.238823450E-1,1.994371414E-3,-2.172470093E-2,-9.860706329E-2
3.287328140E-1,3.576374054E-2,3.182268143E-2,-6.268119812E-2
3.335840640E-1,9.319400787E-2,2.737569809E-2,-4.098415375E-2
3.384344280E-1,8.202242851E-2,1.999187469E-2,-4.033279419E-2
3.432841160E-1,5.739402771E-2,-6.763458252E-3,-3.687953949E-2
3.481345850E-1,8.075428009E-2,-7.840156555E-3,-5.188083649E-2
3.529858350E-1,9.736251831E-2,1.406002045E-2,-2.372932434E-2
3.578363030E-1,8.616113663E-2,2.564096451E-2,1.391315460E-2
3.626858870E-1,6.617140770E-2,-3.444671631E-3,6.530761719E-3
3.675364070E-1,3.061676025E-2,-2.784109116E-2,-1.447772980E-2
3.723876050E-1,2.194690704E-2,-4.022645950E-2,-2.791213989E-2
3.772380740E-1,2.320456505E-2,-4.514026642E-2,-6.239318848E-2
3.820876570E-1,-8.110284805E-3,-3.785085678E-2,-1.152944565E-1
3.869381780E-1,-3.873491287E-2,-3.255271912E-2,-1.558275223E-1
3.917894280E-1,-8.796381950E-2,-2.910041809E-2,-2.221326828E-1
3.966397930E-1,-1.533534527E-1,-1.436710358E-3,-2.714452744E-1
4.014894800E-1,-1.875917912E-1,1.454401016E-2,-2.968883514E-1
4.063399490E-1,-1.983945370E-1,1.913404465E-2,-3.532533646E-1
4.111911990E-1,-1.979122162E-1,1.725530624E-2,-3.338518143E-1
4.160416680E-1,-1.815598011E-1,3.478384018E-2,-3.388099670E-1
4.208912510E-1,-2.060837746E-1,3.585386276E-2,-2.754964828E-1
4.257417720E-1,-1.975436211E-1,6.798648834E-2,-2.369146347E-1
4.305929700E-1,-1.421546936E-1,6.436729431E-2,-2.060794830E-1
4.354434390E-1,-1.207499504E-1,4.894208908E-2,-1.614961624E-1
4.402930220E-1,-7.129049301E-2,4.309988022E-2,-1.458349228E-1
4.451435430E-1,-7.239079475E-2,-7.647514343E-3,-1.541032791E-1
4.499947930E-1,-1.112146378E-1,-1.368045807E-3,-8.400726318E-2
4.548451570E-1,-8.367443085E-2,-1.207733154E-2,-4.069423676E-2
4.596948450E-1,-5.714702606E-2,-2.996444702E-2,-1.092185974E-1
4.645453140E-1,-8.026361465E-3,-1.476907730E-2,-1.605157852E-1
4.693965640E-1,4.216384888E-2,-3.767728806E-2,-2.138128281E-1
4.742470320E-1,-4.742097855E-2,-5.106973648E-2,-1.218824387E-1
4.790966160E-1,-1.302182674E-1,8.794307709E-3,2.394676208E-2
4.839471370E-1,-1.119282246E-1,1.138210297E-3,2.660846710E-2
4.887983350E-1,-6.048297882E-2,-2.325868607E-2,-1.794147491E-2
4.936488030E-1,-4.004859924E-2,-4.749488831E-2,-5.002498627E-2
4.984983870E-1,-7.629609108E-2,-9.311056137E-2,-2.702426910E-2
5.033489070E-1,-1.899845600E-1,-2.214941978E-1,2.205944061E-2
5.082001570E-1,-2.804932594E-1,-2.281386852E-1,1.207971573E-1
5.130505220E-1,-2.535734177E-1,-1.996002197E-1,1.359195709E-1
5.179002100E-1,-1.959316730E-1,-1.811444759E-1,4.920291901E-2
5.227506780E-1,-1.553497314E-1,-1.888756752E-1,-6.271839142E-2
5.276019280E-1,-1.125378609E-1,-1.440992355E-1,-1.214504242E-1
5.324523970E-1,-1.409928799E-1,-1.112847328E-1,-1.607332230E-1
5.373019800E-1,-1.975786686E-1,-1.163835526E-1,-2.140245438E-1
5.421525010E-1,-2.442283630E-1,-9.020519257E-2,-2.385892868E-1
5.470036990E-1,-2.670938969E-1,-6.381273270E-2,-2.703838348E-1
5.518541680E-1,-3.541417122E-1,-1.796846390E-1,-2.807931900E-1
5.567038030E-1,-3.601174355E-1,-1.590340137E-1,-2.486705780E-1
5.615542720E-1,-2.856764793E-1,-1.099500656E-1,-2.288818359E-1
5.664055220E-1,-2.314791679E-1,-1.111183167E-1,-2.853775024E-1
5.712559910E-1,-1.949846745E-1,-1.288537979E-1,-3.012399673E-1
5.761055740E-1,-1.997539997E-1,-1.533362865E-1,-3.338670731E-1
5.809560430E-1,-2.287302017E-1,-1.586875916E-1,-3.260097504E-1
5.858072930E-1,-2.722620964E-1,-1.806707382E-1,-3.587188721E-1
5.906577620E-1,-2.854413986E-1,-1.503016949E-1,-3.534288406E-1
5.955073450E-1,-3.064815998E-1,-1.534013748E-1,-3.532085419E-1
6.003578660E-1,-3.091082573E-1,-1.304764748E-1,-3.128261566E-1
6.052091160E-1,-2.768397331E-1,-1.363232136E-1,-2.990779877E-1
6.100594800E-1,-2.691304684E-1,-1.231036186E-1,-2.523918152E-1
6.149091680E-1,-2.165975571E-1,-1.148533821E-1,-2.061128616E-1
6.197596370E-1,-2.242293358E-1,-1.042752266E-1,-2.458057404E-1
6.246108870E-1,-2.203648090E-1,-8.638381958E-2,-2.284307480E-1
6.294613550E-1,-1.430890560E-1,-3.278636932E-2,-1.828546524E-1
6.343109390E-1,-1.184613705E-1,2.314996719E-2,-2.042474747E-1
6.391614600E-1,-1.081097126E-1,2.222776413E-2,-1.639471054E-1
6.440126570E-1,-7.479882240E-2,7.400989532E-3,-1.931667328E-1
6.488631260E-1,-8.253502846E-2,2.382802963E-2,-1.630096436E-1
6.537127100E-1,-5.873060226E-2,9.011793137E-2,-8.074855804E-2
6.585632300E-1,2.287197113E-2,9.901762009E-2,-4.642772675E-2
6.634144800E-1,6.700444221E-2,1.150698662E-1,-3.821277618E-2
6.682648450E-1,9.979820251E-2,1.453309059E-1,-7.021522522E-2
6.731145320E-1,7.100343704E-2,1.160192490E-1,-1.160869598E-1
6.779650010E-1,3.081202507E-2,1.153068542E-1,-1.092090607E-1
6.828162510E-1,1.949787140E-2,1.477174759E-1,-1.521625519E-1
6.876667200E-1,1.989579201E-2,1.987795830E-1,-1.757888794E-1
6.925163030E-1,4.852485657E-2,2.162904739E-1,-2.064504623E-1
6.973668240E-1,6.973886490E-2,2.265419960E-1,-2.416114807E-1
7.022180220E-1,1.285791397E-1,2.700204849E-1,-2.646818161E-1
7.070684910E-1,1.581737995E-1,2.517557144E-1,-3.020238876E-1
7.119181260E-1,1.707711220E-1,2.197046280E-1,-3.320980072E-1
7.167685950E-1,1.948661804E-1,2.097892761E-1,-3.527145386E-1
7.216198450E-1,1.403541565E-1,1.720442772E-1,-3.401918411E-1
7.264702100E-1,1.669621468E-1,1.636791229E-1,-3.185443878E-1
7.313198970E-1,1.482627392E-1,1.510953903E-1,-2.996444702E-1
7.361703660E-1,1.344561577E-1,1.224989891E-1,-2.858695984E-1
7.410216160E-1,1.390285492E-1,9.926033020E-2,-3.200302124E-1
7.458720850E-1,1.621668339E-1,6.697320938E-2,-3.184881210E-1
7.507216680E-1,1.450595856E-1,4.954338074E-2,-2.505416870E-1
7.555721890E-1,1.387400627E-1,8.017826080E-2,-1.308269501E-1
7.604234390E-1,1.855951548E-1,1.108908653E-1,-1.378526688E-1
7.652738030E-1,2.323392630E-1,1.178593636E-1,-1.709651947E-1
7.701234910E-1,3.168524504E-1,1.725296974E-1,-1.563844681E-1
7.749739600E-1,3.555341959E-1,2.579274178E-1,-1.776666641E-1
7.798252100E-1,3.889385462E-1,3.240270615E-1,-2.346010208E-1
7.846756780E-1,4.435652494E-1,3.118252754E-1,-3.007774353E-1
7.895252620E-1,4.790645838E-1,2.506847382E-1,-4.117832184E-1
7.943757820E-1,3.709062338E-1,2.692985535E-1,-3.082313538E-1
7.992270320E-1,3.382767439E-1,2.577040195E-1,-3.267269135E-1
8.040773970E-1,2.846428156E-1,1.945929527E-1,-4.189033508E-1
8.089270850E-1,3.018398285E-1,1.420202255E-1,-4.822254181E-1
8.137775530E-1,2.845956087E-1,1.996655464E-1,-5.217514038E-1
8.186288030E-1,2.057503462E-1,2.575874329E-1,-4.045648575E-1
8.234791680E-1,2.206748724E-1,2.991456985E-1,-3.953685760E-1
8.283288550E-1,2.400383949E-1,2.981135845E-1,-4.339561462E-1
8.331793760E-1,2.417571545E-1,3.119339943E-1,-4.750204086E-1
8.380305740E-1,1.650735140E-1,3.380274773E-1,-3.901100159E-1
8.428810430E-1,1.554396152E-1,3.076860905E-1,-3.821859360E-1
8.477306260E-1,1.266365051E-1,2.638363838E-1,-4.339046478E-1
8.525811470E-1,1.380847692E-1,2.233028412E-1,-4.284896851E-1
8.574323970E-1,2.108590603E-1,2.192671299E-1,-4.494857788E-1
8.622827620E-1,2.142056227E-1,2.370793819E-1,-3.944635391E-1
8.671324490E-1,2.363786697E-1,2.338473797E-1,-3.899278641E-1
8.719829700E-1,2.345017195E-1,2.381999493E-1,-3.285999298E-1
8.768341680E-1,2.042764425E-1,2.712545395E-1,-2.820405960E-1
8.816846370E-1,1.534042358E-1,2.614243031E-1,-1.811523438E-1
8.865342200E-1,8.219730854E-2,2.705512047E-1,-1.212215424E-1
8.913847410E-1,-4.296064377E-3,2.603819370E-1,-4.248523712E-2
8.962359910E-1,-6.861889362E-2,2.167654037E-1,-2.593421936E-2
9.010863550E-1,-1.536788940E-1,1.516633034E-1,2.161884308E-2
9.059360430E-1,-1.835951805E-1,1.365330219E-1,-3.786563873E-2
9.107865120E-1,-2.162840366E-1,1.331322193E-1,-4.934310913E-2
9.156377620E-1,-2.635737658E-1,1.389446259E-1,-9.391403198E-2
9.204882300E-1,-2.870894670E-1,1.516168118E-1,-8.344268799E-2
9.253378140E-1,-2.629822493E-1,1.806621552E-1,-1.109495163E-1
9.301883350E-1,-2.415181398E-1,1.784353256E-1,-1.262540817E-1
9.350395850E-1,-1.986798048E-1,1.999275684E-1,-1.175870895E-1
9.398899490E-1,-1.559438705E-1,2.352054119E-1,-1.206512451E-1
9.447396370E-1,-1.227842569E-1,2.582073212E-1,-1.045522690E-1
9.495901050E-1,-1.558250189E-1,2.428519726E-1,-9.785938263E-2
9.544413550E-1,-1.785072088E-1,2.963378429E-1,-9.575748444E-2
9.592918240E-1,-2.052429914E-1,3.206505775E-1,-1.148099899E-1
9.641414070E-1,-2.079900503E-1,3.803992271E-1,-1.028051376E-1
9.689919280E-1,-2.344751358E-1,4.205098152E-1,-9.556102753E-2
9.738431260E-1,-2.084262371E-1,4.342865944E-1,-6.225299835E-2
9.786935950E-1,-1.704800129E-1,4.645729065E-1,-3.626251221E-2
9.835432300E-1,-1.519542933E-1,4.636504650E-1,-9.353637695E-2
9.883936990E-1,-1.339638233E-1,4.699311256E-1,-1.361522675E-1
9.932449490E-1,-7.371771336E-2,4.099678993E-1,-1.619262695E-1
9.980954180E-1,-2.351188660E-2,3.983290195E-1,-1.780834198E-1
1.002945001E0,-3.034412861E-2,3.491013050E-1,-2.249717712E-1
1.007795522E0,-6.534504890E-2,3.008918762E-1,-2.241172791E-1
1.012646720E0,-1.544054747E-1,2.606470585E-1,-2.518243790E-1
1.017497189E0,-2.263345718E-1,2.233033180E-1,-2.176408768E-1
1.022346824E0,-2.884653807E-1,2.196688652E-1,-1.339511871E-1
1.027197293E0,-2.790781260E-1,2.707707882E-1,-7.472896576E-2
1.032048543E0,-2.771342993E-1,2.571141720E-1,-2.778530121E-2
1.036899012E0,-3.110399246E-1,2.718884945E-1,6.964683533E-3
1.041748595E0,-3.399014473E-1,2.671139240E-1,2.025890350E-2
1.046599116E0,-3.590266705E-1,2.767629623E-1,4.056358337E-2
1.051450314E0,-2.993965149E-1,3.122508526E-1,2.524566650E-2
1.056300782E0,-2.615232468E-1,3.117463589E-1,4.813385010E-2
1.061150418E0,-2.927818298E-1,3.018696308E-1,3.522872925E-2
1.066000887E0,-2.905129194E-1,3.110575676E-1,2.485942841E-2
1.070852137E0,-3.640631437E-1,2.965934277E-1,5.732917786E-2
1.075702605E0,-3.132802248E-1,3.255157471E-1,5.620670319E-2
1.080552189E0,-3.526552916E-1,2.434654236E-1,2.645111084E-2
1.085402710E0,-4.375443459E-1,3.412756920E-1,7.051944733E-2
1.090253907E0,-3.043076992E-1,4.918189049E-1,6.185436249E-2
1.095104376E0,-2.118217945E-1,5.995261669E-1,2.458000183E-2
1.099954012E0,-1.761482954E-1,6.336731911E-1,1.086196899E-1
1.104804480E0,-1.801916361E-1,5.282428265E-1,1.135940552E-1
1.109655730E0,-1.784861088E-1,4.219684601E-1,1.019411087E-1
1.114506199E0,-1.523126364E-1,1.842591763E-1,1.735687256E-4
1.119355782E0,4.997205734E-2,2.507748604E-1,-8.652877808E-2
1.124206303E0,1.729124784E-1,3.173410892E-1,-1.250057220E-1
1.129057501E0,1.907552481E-1,2.556357384E-1,-1.774015427E-1
1.133907970E0,2.321876287E-1,3.040537834E-1,-2.103967667E-1
1.138757605E0,2.206747532E-1,2.049195766E-1,-2.336120605E-1
1.143608074E0,2.396399975E-1,2.206280231E-1,-2.732610703E-1
1.148459324E0,1.060067415E-1,1.576001644E-1,-2.935085297E-1
1.153309793E0,7.000839710E-2,2.656421661E-1,-3.016557693E-1
1.158159376E0,-2.209782600E-3,3.175978661E-1,-3.215150833E-1
1.163009897E0,-1.203001738E-1,2.831654549E-1,-2.937479019E-1
1.167861095E0,-1.961005926E-1,2.866456509E-1,-3.398828506E-1
1.172711564E0,-1.898126602E-1,3.064265251E-1,-3.976345062E-1
1.177561199E0,-1.283583641E-1,3.214840889E-1,-4.385719299E-1
1.182411668E0,7.858599424E-1,6.006965637E-1,-1.004639626E0
1.187262918E0,2.688356638E-1,3.050832748E-1,-4.553813934E-1
1.192113387E0,-1.327395439E-1,-7.224082947E-5,-2.762537003E-1
1.196962970E0,-4.459965229E-1,-3.473987579E-1,-5.081272125E-2
1.201813491E0,-3.150131702E-1,-6.438970566E-2,-4.770088196E-2
1.206664741E0,-1.218178272E-1,2.618970871E-1,2.684307098E-2
1.211515105E0,-1.483721733E-1,3.409168720E-1,3.574371338E-3
1.216364793E0,-2.389494181E-1,4.590713978E-1,1.564006805E-1
1.221215262E0,-3.054515123E-1,4.491171837E-1,2.275743484E-1
1.226066512E0,-2.954396009E-1,6.013681889E-1,3.105201721E-1
1.230916980E0,-2.989891768E-1,5.536038876E-1,3.269014359E-1
1.235766564E0,-1.749335527E-1,5.548260212E-1,3.414211273E-1
1.240617085E0,5.473256111E-3,6.758570671E-1,3.376293182E-1
1.245468335E0,-6.449913979E-2,4.929041862E-1,3.679409027E-1
1.250318699E0,2.545607090E-2,4.380671978E-1,3.442392349E-1
1.255168387E0,9.778499603E-2,4.032459259E-1,3.120336533E-1
1.260018855E0,-4.436993599E-2,6.400890350E-1,2.238750458E-1
1.264870105E0,-1.037158966E-1,7.119824886E-1,6.099987030E-2
1.269720574E0,-1.579973698E-1,6.606597900E-1,-7.587432861E-3
1.274570157E0,-1.931517124E-1,6.536331177E-1,-8.722591400E-2
1.279420678E0,-1.791977882E-1,5.530014038E-1,-2.325935364E-1
1.284271928E0,4.325366020E-2,5.138604641E-1,-4.932737350E-1
1.289122293E0,2.235291004E-1,5.525984764E-1,-7.662277222E-1
1.293971980E0,-1.636269093E-1,4.819848537E-1,-1.487693787E-1
1.298822501E0,-3.181856871E-1,4.832980633E-1,-5.380249023E-2
1.303673699E0,-1.271176338E-2,5.151503086E-1,-5.486469269E-1
1.308524168E0,2.240800858E-2,4.374394417E-1,-7.381448746E-1
1.313373751E0,-1.304674149E-1,2.495028973E-1,-4.134321213E-1
1.318224272E0,-1.047722101E-1,4.552865028E-1,-3.148117065E-1
1.323075522E0,2.121653557E-1,5.072338581E-1,-8.299894333E-1
1.327925887E0,8.360028267E-3,3.788938522E-1,-3.914289474E-1
1.332775574E0,-5.787432194E-2,4.019649029E-1,-1.940116882E-1
1.337626095E0,-5.156421661E-2,4.301443100E-1,-2.688827515E-1
1.342477293E0,-7.644808292E-2,4.516468048E-1,-1.150102615E-1
1.347327762E0,1.186991930E-1,4.210643768E-1,-2.566471100E-1
1.352177397E0,1.893222332E-1,3.435871601E-1,-3.733358383E-1
1.357027866E0,1.867752075E-1,2.764301300E-1,-3.369684219E-1
1.361879116E0,2.071040869E-1,4.450409412E-1,-2.057180405E-1
1.366729585E0,2.775901556E-1,3.982546329E-1,-3.959140778E-1
1.371579168E0,3.262553215E-1,3.275737762E-1,-4.039382935E-1
1.376429689E0,3.174031973E-1,3.230371475E-1,-3.808441162E-1
1.381280887E0,4.592657089E-1,2.702460289E-1,-4.980487823E-1
1.386131355E0,5.443072319E-1,4.496166706E-1,-6.213607788E-1
1.390980991E0,1.145806313E-1,4.488124847E-1,-2.589950562E-1
1.395831460E0,-9.814631939E-2,3.954668045E-1,-1.081275940E-2
1.400682710E0,-1.180565357E-2,2.994248867E-1,-2.156085968E-1
1.405533178E0,1.865009069E-1,1.870155334E-1,-4.306545258E-1
1.410382762E0,2.374925613E-1,6.117084026E-1,-4.374094009E-1
1.415233282E0,2.220962048E-1,5.480434895E-1,-3.014688492E-1
1.420084532E0,2.859864235E-1,3.161599636E-1,-4.276409149E-1
1.424934897E0,8.091235161E-2,3.165643215E-1,-1.891574860E-1
1.429784585E0,2.608957291E-1,6.376435757E-1,-3.537378311E-1
1.434635105E0,3.426862955E-1,6.477160454E-1,-5.097770691E-1
1.439486303E0,5.447947979E-2,3.897693157E-1,-4.174947739E-1
1.444336772E0,-6.679272652E-2,3.319730759E-1,-4.210176468E-1
1.449186407E0,-8.645737171E-2,4.035303593E-1,-4.838409424E-1
1.454036876E0,-1.102783680E-1,5.062377453E-1,-4.536466599E-1
1.458888126E0,-1.033462286E-1,4.737544060E-1,-4.856767654E-1
1.463738595E0,-1.298236847E-1,7.556741238E-1,-3.941421509E-1
1.468588178E0,-6.384980679E-2,6.440184116E-1,-3.367624283E-1
1.473438699E0,2.233505249E-2,6.122194529E-1,-4.771270752E-1
1.478289949E0,-7.348310947E-2,7.117487192E-1,-1.389284134E-1
1.483140314E0,-2.885473967E-1,9.581159353E-1,-1.120777130E-1
1.487990001E0,-3.472092152E-1,8.340171576E-1,-3.563690186E-1
1.492840470E0,-5.351245403E-1,8.360708952E-1,-1.191596985E-1
1.497691720E0,-5.138443708E-1,9.041482210E-1,-4.787445068E-2
1.502542189E0,-2.405805588E-1,9.665000439E-1,-3.596715927E-1
1.507391772E0,-4.341230392E-1,9.641518593E-1,5.779266357E-2
1.512242293E0,-5.241826773E-1,8.549159765E-1,3.250083923E-1
1.517093543E0,-4.572994709E-1,7.460609674E-1,2.960824966E-1
1.521944012E0,-2.163329124E-1,7.799248695E-1,1.847057343E-1
1.526793595E0,-1.632164717E-1,8.295416832E-1,2.432909012E-1
1.531644116E0,-2.033044100E-1,7.259356976E-1,2.996425629E-1
1.536495314E0,-1.209419966E-1,6.364642382E-1,1.351594925E-1
1.541345782E0,-3.650808334E-2,6.302655935E-1,-3.010082245E-2
1.546195418E0,-2.034771442E-2,7.045015097E-1,2.242088318E-2
1.551045887E0,1.077032089E-1,6.757389307E-1,-1.199903488E-1
1.555897137E0,1.938421726E-1,5.261960030E-1,-3.728742599E-1
1.560747605E0,3.266217709E-1,6.725523472E-1,-4.147701263E-1
1.565597189E0,3.824403286E-1,7.609918118E-1,-3.708486557E-1
1.570447710E0,4.899438620E-1,7.708139420E-1,-4.650774002E-1
1.575298960E0,6.955648661E-1,1.027926564E0,-6.726932526E-1
1.580149324E0,3.730189800E-2,5.352945328E-1,-4.727058411E-1
1.584999012E0,-1.054034233E-1,5.715168715E-1,-4.311370850E-1
1.589849532E0,-7.436299324E-2,8.164796829E-1,-4.161815643E-1
1.594700730E0,-6.345152855E-2,9.881230593E-1,-3.801336288E-1
1.599551199E0,-1.960816383E-1,1.018140078E0,-3.041963577E-1
1.604400835E0,-3.006923199E-1,9.507483244E-1,-3.218460083E-1
1.609251303E0,-3.375470638E-1,9.793870449E-1,-2.900133133E-1
1.614102553E0,-2.643959522E-1,1.058283091E0,-2.471141815E-1
1.618953022E0,-2.313652039E-1,1.151655436E0,-1.955928802E-1
1.623802605E0,-2.221941948E-1,1.169625044E0,-1.975040436E-1
1.628653126E0,-2.728025913E-1,1.129151821E0,-2.144737244E-1
1.633504376E0,-3.327150345E-1,1.052034736E0,-1.252565384E-1
1.638354741E0,-3.582932949E-1,9.792072773E-1,1.073827744E-1
1.643204428E0,-3.510270119E-1,9.510056973E-1,3.495655060E-1
1.648054949E0,-3.657915592E-1,8.674117327E-1,4.943685532E-1
1.652906147E0,-4.127235413E-1,7.854326963E-1,5.852479935E-1
1.657756616E0,-4.706137180E-1,6.997066736E-1,7.390203476E-1
1.662606251E0,-4.821441174E-1,5.765626431E-1,1.055027962E0
1.667456720E0,-4.373204708E-1,5.084229708E-1,1.430128098E0
1.672307970E0,-3.876540661E-1,4.231381416E-1,1.754978180E0
1.677158439E0,-3.345396519E-1,3.583461046E-1,2.044556618E0
1.682008022E0,-3.061206341E-1,2.497519255E-1,2.166283607E0
1.686858543E0,-3.021852970E-1,9.076726437E-2,2.254468918E0
1.691709793E0,-2.256937027E-1,-1.572489738E-2,2.173876762E0
1.696560157E0,-1.276617050E-1,-1.204861403E-1,2.048603058E0
1.701409845E0,-3.585171700E-2,-2.045892477E-1,1.878847122E0
1.706260366E0,2.560567856E-2,-5.758758783E-1,1.640771866E0
1.711111564E0,2.071613073E-1,-6.209497452E-1,1.303258896E0
1.715962032E0,3.577950001E-1,-5.737916231E-1,9.714012146E-1
1.720811668E0,4.147166014E-1,-7.468666434E-1,7.069730759E-1
1.725662137E0,4.893494844E-1,-8.938219547E-1,5.764255524E-1
1.730513387E0,6.089754105E-1,-9.815559387E-1,5.003576279E-1
1.735363855E0,6.981492043E-1,-1.034561396E0,5.046749115E-1
1.740213439E0,8.514255285E-1,-1.015227318E0,5.078582764E-1
1.745063960E0,9.288504124E-1,-1.024203539E0,4.977416992E-1
1.749915210E0,8.217402697E-1,-1.102287054E0,7.826166153E-1
1.754765678E0,6.352467537E-1,-1.139833450E0,1.183115959E0
1.759615262E0,5.763498545E-1,-1.004394650E0,1.522767067E0
1.764465782E0,5.989396572E-1,-9.454908371E-1,1.718242645E0
1.769317032E0,5.423660278E-1,-1.004642963E0,1.841672897E0
1.774167397E0,4.761394262E-1,-1.041238546E0,1.972164154E0
1.779017085E0,4.058575630E-1,-1.053802490E0,2.155367851E0
1.783867553E0,4.294773340E-1,-1.076310635E0,2.350653648E0
1.788718803E0,5.600732565E-1,-1.101788759E0,2.515332222E0
1.793569272E0,3.038576841E-1,-8.993299603E-1,2.757609367E0
1.798418855E0,3.597900867E-1,-9.473213553E-1,2.676336288E0
1.803269376E0,5.789878368E-1,-1.170506239E0,2.446599007E0
1.808120626E0,6.761578321E-1,-1.236084461E0,2.061450005E0
1.812971095E0,6.275175810E-1,-1.203442097E0,1.709785461E0
1.817820678E0,4.627984762E-1,-1.287609816E0,1.362981796E0
1.822671199E0,2.711325884E-1,-1.339635730E0,9.302949905E-1
1.827522449E0,1.474366188E-1,-1.294219971E0,3.615674973E-1
1.832372814E0,1.287113428E-1,-1.432333827E0,-3.865261078E-1
1.837222501E0,1.339211464E-1,-1.392045379E0,-1.087144852E0
1.842072970E0,-1.677430868E-1,-1.306056499E0,-1.172252655E0
1.846924220E0,-5.089360476E-1,-1.393030882E0,-1.503435135E0
1.851774689E0,-8.016102314E-1,-1.472993135E0,-1.743542194E0
1.856624324E0,-1.031249046E0,-1.516589880E0,-1.897715569E0
1.861474793E0,-1.217054009E0,-1.575972676E0,-2.037937641E0
1.866326043E0,-1.225809693E0,-1.663408995E0,-2.322187424E0
1.871176512E0,-1.237261653E0,-1.554748058E0,-2.444387913E0
1.876026095E0,-1.272436738E0,-1.538570404E0,-2.161190033E0
1.880876616E0,-1.306403518E0,-1.544739246E0,-1.982281685E0
1.885727866E0,-1.317807794E0,-1.530483484E0,-1.907360077E0
1.890578230E0,-1.333068132E0,-1.558071613E0,-1.718849182E0
1.895427918E0,-1.308873057E0,-1.575077057E0,-1.462327957E0
1.900278439E0,-1.283389568E0,-1.715579033E0,-1.209510803E0
1.905129637E0,-1.184987187E0,-1.843576431E0,-9.698305130E-1
1.909980105E0,-1.018196583E0,-1.916526794E0,-7.168321609E-1
1.914829741E0,-8.307600021E-1,-1.886856318E0,-4.887151718E-1
1.919680210E0,-6.973602176E-1,-1.800890326E0,-1.776056290E-1
1.924531460E0,-6.023561358E-1,-1.802252412E0,4.211425781E-2
1.929381928E0,-5.308877826E-1,-1.631015778E0,1.923198700E-1
1.934231512E0,-4.710846543E-1,-1.680124402E0,3.402175903E-1
1.939082032E0,-3.787697554E-1,-1.854475737E0,3.044319153E-1
1.943933282E0,-3.576942086E-1,-1.996868730E0,2.980384827E-1
1.948783751E0,-3.024912477E-1,-2.007485390E0,3.353900909E-1
1.953633335E0,-2.704306245E-1,-1.973269820E0,3.544559479E-1
1.958483855E0,-2.633295059E-1,-1.894271255E0,4.197797775E-1
1.963335105E0,-3.030393124E-1,-1.904090643E0,4.236927032E-1
1.968185470E0,-3.113566637E-1,-1.880300999E0,3.614273071E-1
1.973035157E0,-3.152847886E-1,-1.848631620E0,3.595333099E-1
1.977885678E0,-3.394610286E-1,-1.734460831E0,3.555831909E-1
1.982736876E0,-3.385378122E-1,-1.504048347E0,5.023040771E-1
1.987587345E0,-4.498472214E-1,-1.438628197E0,7.179965973E-1
1.992436980E0,-5.383368134E-1,-1.247352839E0,8.731927872E-1
1.997287449E0,-5.346160531E-1,-1.098572850E0,9.748001099E-1
2.002138699E0,-5.192862153E-1,-1.119185925E0,1.082777023E0
2.006989168E0,-4.821035862E-1,-1.151396751E0,1.235383034E0
2.011838803E0,-3.886803389E-1,-1.133442521E0,1.325141907E0
2.016689272E0,-2.116115093E-1,-1.079845428E0,1.347465515E0
2.021540522E0,-3.324064612E-2,-9.671658278E-1,1.448319435E0
2.026390991E0,5.486139655E-2,-1.025604010E0,1.326747894E0
2.031240574E0,1.929882169E-1,-1.140653849E0,1.098031044E0
2.036091095E0,3.554463387E-1,-1.054482341E0,8.723754883E-1
2.040942345E0,5.158189535E-1,-8.940795660E-1,6.187076569E-1
2.045792710E0,5.898956656E-1,-7.695285082E-1,2.893304825E-1
2.050642397E0,5.456776619E-1,-7.384077311E-1,-4.863739014E-2
2.055492918E0,4.370372295E-1,-7.338629961E-1,-3.569345474E-1
2.060344168E0,2.965416014E-1,-6.913653612E-1,-6.595468521E-1
2.065194532E0,1.735651493E-1,-6.518474817E-1,-9.683961868E-1
2.070044220E0,7.907637954E-2,-6.179853678E-1,-1.278654099E0
2.074894741E0,4.062417150E-2,-5.514888763E-1,-1.573678970E0
2.079745939E0,3.342142701E-2,-5.073163509E-1,-1.832074165E0
2.084596407E0,9.106993675E-3,-4.758148193E-1,-2.010992050E0
2.089446043E0,5.883574486E-3,-4.398374557E-1,-2.125077248E0
2.094296512E0,-2.626198530E-2,-3.705079556E-1,-2.126774788E0
2.099147762E0,-3.646808863E-2,-3.558351994E-1,-2.061824799E0
2.103998230E0,-6.710594893E-2,-3.426489830E-1,-1.983029366E0
2.108847814E0,-5.311882496E-2,-3.425061703E-1,-1.878559113E0
2.113698335E0,-3.956347704E-2,-3.288185596E-1,-1.729420185E0
2.118549585E0,2.165472507E-2,-3.254525661E-1,-1.566762447E0
2.123400053E0,7.035613060E-2,-3.013949394E-1,-1.443170547E0
2.128249637E0,2.354511321E-1,-7.391229868E-1,-1.810162544E0
2.133100157E0,2.446190417E-1,-3.645961285E-1,-1.407635689E0
2.137951407E0,1.573019326E-1,-1.424527168E-1,-9.370574951E-1
2.142801772E0,8.552688360E-2,-1.040258408E-1,-9.740743637E-1
2.147651460E0,1.486372948E-2,-1.154296398E-1,-9.489583969E-1
2.152501980E0,-5.936306715E-2,-8.588314056E-2,-8.546466827E-1
2.157353230E0,-1.261550784E-1,-2.090563774E-1,-7.677659988E-1
2.162203595E0,-1.340373755E-1,-3.436708450E-1,-7.385311127E-1
2.167053282E0,-1.099249125E-1,-4.039356709E-1,-6.831808090E-1
2.171903803E0,-7.554048300E-2,-3.974049091E-1,-5.730638504E-1
2.176755001E0,-3.981322050E-2,-7.472058535E-1,-7.093486786E-1
2.181605470E0,5.109196901E-2,-6.333757639E-1,-6.900491714E-1
2.186455105E0,1.415145397E-2,-2.286400795E-1,-1.785612106E-1
2.191305574E0,-1.592665911E-2,1.462697983E-2,7.184028625E-3
2.196156824E0,-7.079857588E-2,8.669304848E-2,4.718208313E-2
2.201007293E0,-1.417846084E-1,4.493904114E-2,1.822280884E-2
2.205856876E0,-1.762612462E-1,1.131391525E-2,1.044340134E-1
2.210707397E0,-1.985608935E-1,-3.757548332E-2,7.846355438E-2
2.215558647E0,-1.606312990E-1,-3.893280029E-2,1.171760559E-1
2.220409116E0,-4.104214907E-2,-4.173808098E-1,-3.245582581E-1
2.225258699E0,-2.160662413E-2,-2.996788025E-1,-4.312448502E-1
2.230109220E0,-4.746198654E-2,-2.801108360E-2,-3.039445877E-1
2.234960470E0,-5.758786201E-2,2.012958527E-1,-2.583856583E-1
2.239810939E0,-6.147295237E-2,2.733466625E-1,-3.468446732E-1
2.244660522E0,-1.308683753E-1,2.858052254E-1,-3.299798965E-1
2.249511043E0,-1.135997772E-1,2.140834332E-1,-3.655233383E-1
2.254362293E0,-1.103510857E-1,1.750569344E-1,-2.979965210E-1
2.259212657E0,-9.673297405E-3,1.708872318E-1,-3.044242859E-1
2.264062345E0,6.062054634E-2,1.461377144E-1,-3.368291855E-1
2.268912866E0,8.682829142E-2,2.584645748E-1,-2.708759308E-1
2.273764064E0,6.973409653E-2,3.952813148E-1,-2.142267227E-1
2.278614532E0,7.616424561E-2,5.423052311E-1,-2.481174469E-1
2.283464168E0,1.156674623E-1,6.852350235E-1,-2.696399689E-1
2.288314637E0,1.333019137E-1,7.621407509E-1,-2.478027344E-1
2.293165887E0,1.819101572E-1,7.711017132E-1,-2.448778152E-1
2.298016355E0,2.280596197E-1,7.722938061E-1,-2.680654526E-1
2.302865991E0,2.815500200E-1,7.369980812E-1,-2.718830109E-1
2.307716460E0,3.378472626E-1,6.987440586E-1,-2.754611969E-1
2.312567710E0,3.587563336E-1,7.125511169E-1,-3.170394897E-1
2.317418178E0,3.396743238E-1,7.423062325E-1,-3.678121567E-1
2.322267762E0,3.231332004E-1,7.282238007E-1,-4.230127335E-1
2.327118282E0,2.829491794E-1,7.421164513E-1,-5.280237198E-1
2.331969532E0,2.169212103E-1,7.459487915E-1,-5.920171738E-1
2.336820001E0,2.223684192E-1,7.422454357E-1,-6.796636581E-1
2.341669585E0,2.196976542E-1,7.240109444E-1,-8.029508591E-1
2.346520105E0,1.990227699E-1,7.343239784E-1,-8.161096573E-1
2.351371355E0,1.917301416E-1,7.373869419E-1,-7.958269119E-1
2.356221720E0,1.742789745E-1,7.379920483E-1,-7.493124008E-1
2.361071407E0,2.092071176E-1,7.409636974E-1,-7.291584015E-1
2.365921928E0,2.126269341E-1,7.297232151E-1,-7.282028198E-1
2.370773178E0,2.252191603E-1,7.377464771E-1,-7.320699692E-1
2.375623543E0,2.186086774E-1,7.292811871E-1,-7.216482162E-1
2.380473230E0,1.878397465E-1,7.258491516E-1,-6.539802551E-1
2.385323751E0,1.892071366E-1,6.291494370E-1,-6.916255951E-1
2.390175001E0,2.749950588E-1,6.041283607E-1,-7.626762390E-1
2.395025366E0,1.797595620E-1,6.847100258E-1,-5.875482559E-1
2.399875053E0,1.121702194E-1,8.111836910E-1,-4.869365692E-1
2.404725574E0,9.279400110E-2,8.206167221E-1,-5.084266663E-1
2.409576772E0,1.117601395E-1,7.727878094E-1,-5.370435715E-1
2.414427241E0,1.498764753E-1,7.180466652E-1,-4.820032120E-1
2.419276876E0,2.224115431E-1,6.275908947E-1,-5.322837830E-1
2.424127345E0,3.951357305E-1,5.683403015E-1,-6.805629730E-1
2.428978595E0,2.866521180E-1,7.392420769E-1,-2.671823502E-1
2.433829064E0,2.362388670E-1,7.531354427E-1,6.880569458E-2
2.438678699E0,2.980723679E-1,7.720983028E-1,1.819896698E-1
2.443529168E0,3.343962729E-1,6.883971691E-1,2.041969299E-1
2.448380418E0,2.616575658E-1,6.572449207E-1,3.196840286E-1
2.453230887E0,2.213331759E-1,6.213383675E-1,4.493923187E-1
2.458080470E0,2.969087660E-1,6.138584614E-1,5.432052612E-1
2.462930991E0,5.118243694E-1,3.427414894E-1,3.001232147E-1
2.467782241E0,6.547146440E-1,4.511296749E-1,3.732509613E-1
2.472632710E0,7.809048891E-1,6.595373154E-1,5.994138718E-1
2.477482293E0,6.422934532E-1,6.936562061E-1,6.292724609E-1
2.482332814E0,3.029659688E-1,6.775288582E-1,6.712093353E-1
2.487184064E0,4.581941366E-1,6.418721676E-1,3.882398605E-1
2.492034532E0,4.089311659E-1,6.916022301E-1,1.106109619E-1
2.496884116E0,3.993598521E-1,7.550218105E-1,1.871070862E-1
2.501734637E0,3.934325278E-1,8.282778263E-1,3.683853149E-1
2.506585887E0,2.161315084E-1,8.832383156E-1,6.900281906E-1
2.511436251E0,2.665430009E-1,8.459026814E-1,7.789783478E-1
2.516285939E0,2.517124116E-1,7.947397232E-1,7.982826233E-1
2.521136460E0,3.330636322E-1,7.175440788E-1,8.149852753E-1
2.525987710E0,4.051363766E-1,7.262346745E-1,8.626823425E-1
2.530838074E0,3.860258162E-1,7.060375214E-1,1.127799034E0
2.535687762E0,4.496183991E-1,6.240742207E-1,1.287284851E0
2.540538282E0,3.339203894E-1,5.548603535E-1,1.482286453E0
2.545389532E0,5.021386147E-1,5.942373276E-1,1.406727791E0
2.550239897E0,4.768123031E-1,5.248453617E-1,1.311806679E0
2.555089585E0,3.881888688E-1,4.519004822E-1,1.154471397E0
2.559940105E0,2.428149879E-1,4.139442444E-1,1.197510719E0
2.564791355E0,-6.911563873E-2,2.225513458E-1,1.265956879E0
2.569641720E0,-1.890256405E-1,6.719183922E-2,1.335701942E0
2.574491407E0,-4.160904288E-1,2.937722206E-2,1.595389366E0
2.579341928E0,-6.477855444E-1,-2.375793457E-1,1.745929718E0
2.584193126E0,-7.296884656E-1,-3.725626469E-1,1.907000542E0
2.589043595E0,-7.694991231E-1,-4.788098335E-1,2.191002846E0
2.593893230E0,-8.308554292E-1,-7.357091904E-1,2.657579422E0
2.598743751E0,-7.264474630E-1,-1.069110155E0,2.924219131E0
2.603594949E0,-6.056631207E-1,-1.254734039E0,3.328521729E0
2.608445418E0,-5.361670852E-1,-1.427169204E0,3.786889076E0
2.613295053E0,-3.994592428E-1,-1.506140471E0,4.153870583E0
2.618145522E0,-2.305755615E-1,-1.526154518E0,4.401314735E0
2.622996772E0,-8.156752586E-2,-1.516979337E0,4.603879929E0
2.627847241E0,8.862483501E-2,-1.496379375E0,4.754821777E0
2.632696876E0,2.471434176E-1,-1.462919593E0,4.809180260E0
2.637547345E0,4.417734146E-1,-1.409933090E0,4.669311523E0
2.642398595E0,6.244565845E-1,-1.357031345E0,4.362015724E0
2.647249064E0,7.823488712E-1,-1.240230083E0,3.909251213E0
2.652098647E0,9.618849754E-1,-1.220305681E0,3.392660141E0
2.656949168E0,1.095090389E0,-1.333025098E0,2.879274368E0
2.661800418E0,1.269792438E0,-1.425391793E0,2.297462463E0
2.666650887E0,1.482642293E0,-1.485437274E0,1.778756142E0
2.671500522E0,1.484112501E0,-1.505686641E0,1.265552521E0
2.676350991E0,1.495822310E0,-1.500375986E0,7.338705063E-1
2.681202241E0,1.464761496E0,-1.371374369E0,2.984189987E-1
2.686052710E0,1.294970393E0,-1.347691298E0,-6.506538391E-2
2.690902293E0,1.081341505E0,-1.363906145E0,-5.720529556E-1
2.695752814E0,9.662191272E-1,-1.371344090E0,-9.286870956E-1
2.700604064E0,6.935343742E-1,-1.374145269E0,-1.173687935E0
2.705454532E0,4.263336957E-1,-1.352541208E0,-1.340901375E0
2.710304116E0,1.817574501E-1,-1.468236446E0,-1.416388512E0
2.715154637E0,1.246720552E-1,-1.454607487E0,-1.558473587E0
2.720005887E0,1.787008047E-1,-1.365953207E0,-1.693285942E0
2.724856355E0,2.295082808E-1,-1.282371283E0,-1.720989704E0
2.729705939E0,2.925336659E-1,-1.303360462E0,-1.706629753E0
2.734556460E0,3.593936265E-1,-1.368122101E0,-1.648245811E0
2.739407710E0,4.551081359E-1,-1.420710087E0,-1.543931484E0
2.744258178E0,5.976005793E-1,-1.434349537E0,-1.413130760E0
2.749107762E0,6.971188784E-1,-1.492340565E0,-1.246541977E0
2.753958282E0,7.043216825E-1,-1.565650463E0,-1.087426186E0
2.758809532E0,7.223736048E-1,-1.587399483E0,-1.017072201E0
2.763659897E0,6.839429140E-1,-1.569255352E0,-9.591321945E-1
2.768509585E0,6.510242820E-1,-1.544797659E0,-9.375381470E-1
2.773360105E0,5.419622660E-1,-1.552299261E0,-8.734169006E-1
2.778211355E0,4.239454269E-1,-1.573070049E0,-7.642316818E-1
2.783061824E0,2.615423501E-1,-1.573849440E0,-5.836400986E-1
2.787911407E0,1.794516742E-1,-1.600553274E0,-4.223136902E-1
2.792761928E0,1.371260285E-1,-1.627304077E0,-2.464904785E-1
2.797613178E0,2.110585868E-1,-1.576049566E0,-1.178951263E-1
2.802463543E0,3.294294775E-1,-1.497921944E0,-4.078197479E-2
2.807313230E0,4.108115733E-1,-1.467604637E0,4.363059998E-3
2.812163751E0,4.336361587E-1,-1.457233429E0,3.240203857E-2
2.817015001E0,4.026021659E-1,-1.445843697E0,6.532669067E-4
2.821865366E0,3.246541023E-1,-1.403136730E0,-1.023569107E-1
2.826715053E0,2.920430899E-1,-1.367543459E0,-2.478237152E-1
2.831565574E0,2.418888807E-1,-1.361274481E0,-4.377765656E-1
2.836416824E0,1.951327324E-1,-1.334702492E0,-6.193361282E-1
2.841267189E0,2.011550665E-1,-1.250175476E0,-8.043031693E-1
2.846116876E0,1.971541643E-1,-1.179883242E0,-1.052328587E0
2.850967397E0,1.296114922E-1,-1.119257212E0,-1.267739296E0
2.855818647E0,4.796946049E-2,-1.004012108E0,-1.500805378E0
2.860669012E0,-6.754946709E-2,-9.249510765E-1,-1.732558250E0
2.865518699E0,-1.743257046E-1,-8.126804829E-1,-1.910534859E0
2.870369220E0,-3.157553673E-1,-7.649810314E-1,-2.070888042E0
2.875220470E0,-4.012788534E-1,-7.623617649E-1,-2.285547733E0
2.880070835E0,-3.651546240E-1,-6.942524910E-1,-2.456868172E0
2.884920522E0,-2.417142391E-1,-6.798815727E-1,-2.719065666E0
2.889771043E0,-2.895933390E-1,-5.180289745E-1,-2.593876362E0
2.894622293E0,-3.754460812E-1,-5.073013306E-1,-2.500165939E0
2.899472657E0,-5.147310495E-1,-4.820461273E-1,-2.445095062E0
2.904322345E0,-6.683408022E-1,-4.129986763E-1,-2.428754807E0
2.909172866E0,-8.073422909E-1,-2.971506119E-1,-2.460911751E0
2.914024116E0,-8.480662107E-1,-4.082655907E-2,-2.520205498E0
2.918874480E0,-8.129993677E-1,1.049654484E-1,-2.628301620E0
2.923724168E0,-7.890309095E-1,5.936312675E-2,-2.641914845E0
2.928574689E0,-6.826374531E-1,-1.722097397E-2,-2.546793461E0
2.933425887E0,-5.820113420E-1,-1.057338715E-1,-2.383631229E0
2.938276355E0,-5.008021593E-1,-1.492049694E-1,-2.137906551E0
2.943125991E0,-4.336749315E-1,-2.150382996E-1,-1.866850853E0
2.947976512E0,-4.066892862E-1,-1.814875603E-1,-1.599063873E0
2.952827762E0,-3.909125328E-1,-1.259336472E-1,-1.348526955E0
2.957678126E0,-4.246857166E-1,-1.039979458E-1,-1.162764072E0
2.962527814E0,-4.174461365E-1,-8.263158798E-2,-9.913282394E-1
2.967378335E0,-3.985065222E-1,-2.855443954E-2,-9.178628922E-1
2.972229532E0,-3.943649530E-1,2.838373184E-3,-8.106279373E-1
2.977080001E0,-3.860105276E-1,6.699085236E-3,-7.270259857E-1
2.981929637E0,-3.518116474E-1,4.389047623E-3,-6.191205978E-1
2.986780157E0,-3.180760145E-1,2.461051941E-2,-5.419349670E-1
2.991631407E0,-2.630215883E-1,9.106588364E-2,-5.000944138E-1
2.996481772E0,-2.180728912E-1,1.370141506E-1,-4.745845795E-1
3.001331460E0,-1.544436216E-1,1.982264519E-1,-4.653196335E-1
3.006181980E0,-1.510496140E-1,2.030019760E-1,-4.579534531E-1
3.011033178E0,-1.171232462E-1,2.902758121E-1,-4.597654343E-1
3.015883647E0,-4.780387878E-2,3.859288692E-1,-4.636001587E-1
3.020733282E0,1.871633530E-2,4.374177456E-1,-4.718513489E-1
3.025583803E0,5.647099018E-2,5.332529545E-1,-4.438295364E-1
3.030435053E0,9.655821323E-2,5.828988552E-1,-4.418935776E-1
3.035285418E0,1.127581596E-1,6.366868019E-1,-5.162076950E-1
3.040135105E0,1.051605940E-1,6.922323704E-1,-5.375747681E-1
3.044985626E0,1.312232018E-1,7.640342712E-1,-5.348205566E-1
3.049836876E0,-7.456588745E-2,6.610271931E-1,-4.985170364E-1
3.054687241E0,-3.561818600E-2,8.780570030E-1,-4.046411514E-1
3.059536928E0,1.471259594E-1,1.039476156E0,-3.943901062E-1
3.064387449E0,3.802185059E-1,1.197894812E0,-4.006738663E-1
3.069238699E0,4.914798737E-1,1.226474524E0,-3.923282623E-1
3.074089064E0,4.858216047E-1,1.213825464E0,-4.578113556E-1
3.078938751E0,4.109658003E-1,1.200608015E0,-5.516128540E-1
3.083789272E0,2.880862951E-1,1.186973572E0,-6.045026779E-1
3.088640522E0,1.361452341E-1,1.161175489E0,-6.333990097E-1
3.093490887E0,-4.875659943E-5,1.154391050E0,-6.695489883E-1
3.098340574E0,-8.498609066E-2,1.116393089E0,-6.532354355E-1
3.103191095E0,-1.499390602E-1,1.069136143E0,-5.799369812E-1
3.108042345E0,-2.115870714E-1,1.031589031E0,-4.401016235E-1
3.112892710E0,-2.148059607E-1,1.020648479E0,-2.458324432E-1
3.117742397E0,-2.022880316E-1,1.055449724E0,-2.346038818E-2
3.122592918E0,-2.212995291E-1,1.076463461E0,2.269325256E-1
3.127444168E0,-2.426583767E-1,1.129136562E0,4.695167542E-1
3.132294532E0,-2.421846390E-1,1.182546139E0,7.425088882E-1
3.137144220E0,-2.863715887E-1,1.241115093E0,1.031737328E0
3.141994741E0,-3.129045963E-1,1.232819796E0,1.349269867E0
3.146845991E0,-3.358633518E-1,1.202708960E0,1.623590469E0
3.151696355E0,-3.119683266E-1,1.176750183E0,1.852562904E0
3.156546043E0,-2.747578621E-1,1.126144171E0,2.014791489E0
3.161396564E0,-2.075287104E-1,1.122653246E0,2.115152359E0
3.166247814E0,-1.747387648E-1,1.192451239E0,2.122705460E0
3.171098178E0,-1.837596893E-1,1.263950825E0,2.037460327E0
3.175947866E0,-2.206432819E-1,1.311129570E0,1.950214386E0
3.180798387E0,-2.615739107E-1,1.364997625E0,1.911193848E0
3.185649637E0,-2.708182335E-1,1.392123461E0,1.982437134E0
3.190500105E0,-2.699093819E-1,1.413843393E0,2.008496284E0
3.195349689E0,-2.711838484E-1,1.456820488E0,1.967721939E0
3.200200210E0,-2.961891890E-1,1.535710573E0,1.934171677E0
3.205051460E0,-3.622224331E-1,1.557955503E0,1.888311386E0
3.209901928E0,-5.587687492E-1,1.388367176E0,1.786549568E0
3.214751512E0,-8.739987612E-1,9.711036682E-1,1.692937851E0
3.219602032E0,-7.718315125E-1,1.065361738E0,1.690755844E0
3.224453282E0,-9.120763540E-1,1.374534130E0,1.915974617E0
3.229303751E0,-1.179164290E0,1.539564848E0,2.291908264E0
3.234153335E0,-1.297687888E0,1.572286606E0,2.706192017E0
3.239003855E0,-1.395186424E0,1.352447271E0,3.020439148E0
3.243855105E0,-1.427519679E0,1.001203299E0,3.366580009E0
3.248705574E0,-1.376817107E0,6.440565586E-1,3.766492844E0
3.253555157E0,-1.359408736E0,2.207596302E-1,4.045582771E0
3.258405678E0,-1.251976609E0,1.766681671E-2,4.598933220E0
3.263256928E0,-1.157640219E0,-1.257860661E-1,5.122905731E0
3.268107397E0,-1.035735130E0,-2.123143673E-1,5.608434677E0
3.272956980E0,-9.112125635E-1,-4.095203876E-1,6.022370338E0
3.277807501E0,-7.736982107E-1,-7.109844685E-1,6.343761444E0
3.282658751E0,-5.466372967E-1,-9.125671387E-1,6.549441338E0
3.287509220E0,-3.237190247E-1,-1.047254086E0,6.630614281E0
3.292358803E0,-1.576606035E-1,-1.202403784E0,6.532889366E0
3.297209324E0,-3.791642189E-2,-1.307093620E0,6.347795486E0
3.302060574E0,3.643262386E-2,-1.349797249E0,6.090067863E0
3.306911043E0,1.184343100E-1,-1.299447536E0,5.671425819E0
3.311760626E0,1.514440775E-1,-1.306487799E0,5.144763947E0
3.316611147E0,1.279264688E-1,-1.377503633E0,4.404900551E0
3.321462397E0,9.627342224E-2,-1.453892946E0,3.468270302E0
3.326312866E0,-1.653385162E-2,-1.501175165E0,2.585673332E0
3.331162501E0,-1.681653261E-1,-1.587760925E0,1.713578224E0
3.336012970E0,-3.116475344E-1,-1.662141085E0,8.944196701E-1
3.340864220E0,-5.550401211E-1,-1.735117912E0,1.873722076E-1
3.345714689E0,-8.577212095E-1,-1.839226842E0,-4.081201553E-1
3.350564324E0,-1.245152473E0,-2.004577875E0,-1.012438774E0
3.355414793E0,-1.656555057E0,-2.139523983E0,-1.564039230E0
3.360266043E0,-1.970961452E0,-2.257883549E0,-1.908108711E0
3.365116512E0,-2.181755543E0,-2.309369564E0,-2.116880417E0
3.369966147E0,-2.284933090E0,-2.289132595E0,-2.200390339E0
3.374816616E0,-2.349977016E0,-2.300218105E0,-2.197083950E0
3.379667866E0,-2.338720322E0,-2.337910175E0,-2.121454239E0
3.384518335E0,-2.325631618E0,-2.385866880E0,-2.026106834E0
3.389367970E0,-2.330355644E0,-2.492061377E0,-1.901573181E0
3.394218439E0,-2.166445732E0,-2.453528404E0,-1.740610123E0
3.399069689E0,-1.967366815E0,-2.301701546E0,-1.538291931E0
3.403920157E0,-1.952612042E0,-2.338216305E0,-1.232295036E0
3.408769793E0,-1.893977046E0,-2.390886784E0,-9.563646317E-1
3.413620314E0,-1.604506969E0,-2.273098707E0,-7.821044922E-1
3.418471512E0,-1.415567160E0,-2.250442743E0,-5.345897675E-1
3.423321980E0,-1.258478522E0,-2.205694437E0,-2.661657333E-1
3.428171616E0,-1.146447897E0,-2.181957960E0,-6.747627258E-2
3.433022137E0,-1.203664303E0,-2.458742142E0,3.519916534E-2
3.437873387E0,-1.047076344E0,-2.495221853E0,4.916286469E-2
3.442723751E0,-9.250277281E-1,-2.451934814E0,5.115032196E-2
3.447573439E0,-7.457795143E-1,-2.302715540E0,1.154394150E-1
3.452423960E0,-8.315329552E-1,-2.459147215E0,1.369619370E-1
3.457275210E0,-7.012481689E-1,-2.466455698E0,6.313037872E-2
3.462125574E0,-5.081264973E-1,-2.446824312E0,-9.394073486E-2
3.466975262E0,-3.787589073E-1,-2.412265539E0,-2.575950623E-1
3.471825782E0,-2.724708319E-1,-2.434670687E0,-4.373369217E-1
3.476677032E0,-1.391823292E-1,-2.384807348E0,-7.264394760E-1
3.481527501E0,-3.864645958E-2,-2.336708307E0,-1.137221336E0
3.486377085E0,2.909052372E-2,-2.135023594E0,-1.667547703E0
3.491227605E0,6.581866741E-2,-1.978955269E0,-1.718967915E0
3.496078855E0,9.423375130E-2,-1.914641380E0,-1.788817883E0
3.500929324E0,1.694833040E-1,-1.858927965E0,-2.005793571E0
3.505778907E0,2.618993521E-1,-1.819376230E0,-2.276393890E0
3.510629428E0,2.982338667E-1,-1.815344095E0,-2.648478985E0
3.515480678E0,3.314611912E-1,-1.753909111E0,-3.009706974E0
3.520331147E0,3.934180737E-1,-1.649865866E0,-3.324302673E0
3.525180730E0,4.444415569E-1,-1.534566402E0,-3.578078747E0
3.530031251E0,5.293530226E-1,-1.467478275E0,-3.816763401E0
3.534882501E0,6.292738914E-1,-1.290135860E0,-3.964081287E0
3.539732970E0,6.762011051E-1,-1.200175524E0,-3.929519176E0
3.544582553E0,6.047775745E-1,-1.268051863E0,-3.914483070E0
3.549433074E0,6.289422512E-1,-1.274701595E0,-3.972068787E0
3.554284324E0,7.283487320E-1,-1.180942774E0,-3.968655109E0
3.559134793E0,7.681905031E-1,-1.069862604E0,-3.859095097E0
3.563984428E0,9.690574408E-1,-1.028108358E0,-3.536611080E0
3.568834897E0,1.087912560E0,-1.068772078E0,-3.413330078E0
3.573686147E0,9.814037085E-1,-8.038606644E-1,-3.558740139E0
3.578536616E0,6.311883926E-1,-7.125220299E-1,-3.297935009E0
3.583386251E0,4.668579102E-1,-8.071622849E-1,-3.343737125E0
3.588236772E0,5.216801167E-1,-6.719546318E-1,-3.284265995E0
3.593088022E0,5.239846706E-1,-5.110683441E-1,-3.004379749E0
3.597938387E0,4.262818098E-1,-4.182100296E-1,-2.824460983E0
3.602788074E0,3.214772940E-1,-4.174928665E-1,-2.717952251E0
3.607638595E0,2.569477558E-1,-4.254546165E-1,-2.658291340E0
3.612489845E0,2.276890278E-1,-3.876824379E-1,-2.470529556E0
3.617340210E0,2.645705938E-1,-3.524866104E-1,-2.266948700E0
3.622189897E0,3.387597799E-1,-2.583646774E-1,-2.042376995E0
3.627040418E0,4.430482388E-1,-1.534881592E-1,-1.875545502E0
3.631891668E0,5.244244337E-1,-6.688499451E-2,-1.763816833E0
3.636742032E0,5.745102167E-1,-6.221294403E-3,-1.716536522E0
3.641591720E0,5.385969877E-1,6.189584732E-2,-1.750590801E0
3.646442241E0,4.748874903E-1,1.397519112E-1,-1.703496933E0
3.651293491E0,3.707885742E-1,2.007255554E-1,-1.532273293E0
3.656143960E0,2.862360477E-1,2.208132744E-1,-1.253760815E0
3.660993543E0,2.046562433E-1,2.453470230E-1,-9.779863358E-1
3.665844064E0,1.971867085E-1,1.666774750E-1,-9.130387306E-1
3.670695314E0,1.817017794E-1,3.457531929E-1,-4.701042175E-1
3.675545782E0,1.383709908E-1,4.614486694E-1,-8.674621582E-2
3.680395366E0,7.493829727E-2,5.206007957E-1,2.039442062E-1
3.685245887E0,3.884530067E-2,5.493202209E-1,3.256425858E-1
3.690097137E0,1.746225357E-2,6.048750877E-1,4.052505493E-1
3.694947605E0,7.501125336E-3,6.441993713E-1,4.617795944E-1
3.699797189E0,1.316118240E-2,6.600170135E-1,5.549774170E-1
3.704647710E0,2.023315430E-2,6.640930176E-1,7.470798492E-1
3.709498960E0,6.727600098E-2,6.947097778E-1,9.447402954E-1
3.714349428E0,9.214401245E-2,7.638201714E-1,1.076200485E0
3.719199064E0,1.331204176E-1,8.476352692E-1,1.220353127E0
3.724049532E0,1.601864100E-1,8.580870628E-1,1.178273201E0
3.728900782E0,2.052112818E-1,1.053882122E0,1.330303192E0
3.733751251E0,1.716548204E-1,1.191086292E0,1.578341484E0
3.738600887E0,1.505011320E-1,1.212438583E0,1.680755615E0
3.743451407E0,1.212720871E-1,1.091891289E0,1.656563759E0
3.748302657E0,1.596112251E-1,1.097261906E0,1.639728546E0
3.753153022E0,2.412590981E-1,1.154335022E0,1.701879501E0
3.758002710E0,3.353598118E-1,1.181984425E0,1.754379272E0
3.762853230E0,4.064974785E-1,1.197498798E0,1.794680595E0
3.767704480E0,4.619768858E-1,1.210954189E0,1.767580986E0
3.772554845E0,5.019183159E-1,1.172790527E0,1.744594574E0
3.777404532E0,5.236639977E-1,1.088682175E0,1.710908890E0
3.782255053E0,5.942837000E-1,1.006658077E0,1.688007355E0
3.787106303E0,6.156218052E-1,9.297475815E-1,1.663603783E0
3.791956772E0,6.932716370E-1,8.507800102E-1,1.740581512E0
3.796806355E0,7.893331051E-1,8.269982338E-1,1.818556786E0
3.801656876E0,8.824328184E-1,8.364210129E-1,1.943198204E0
3.806508126E0,1.023348212E0,8.808803558E-1,2.141116142E0
3.811358595E0,1.169426560E0,9.095635414E-1,2.398235321E0
3.816208178E0,1.427987099E0,1.089151859E0,2.851511002E0
3.821058699E0,1.688390732E0,1.165735245E0,3.166424751E0
3.825909949E0,1.883800745E0,1.076849937E0,3.152098656E0
3.830760418E0,2.024615288E0,9.470672607E-1,2.964052200E0
3.835610053E0,2.075860977E0,9.270586967E-1,2.795895576E0
3.840460522E0,2.017928600E0,9.765439034E-1,2.745292664E0
3.845311772E0,1.810683489E0,9.646062851E-1,2.897932053E0
3.850162241E0,1.490402579E0,8.925943375E-1,3.052184105E0
3.855011876E0,1.217157722E0,7.882132530E-1,3.205027580E0
3.859862397E0,9.282677174E-1,7.738490105E-1,3.435144424E0
3.864713595E0,7.211951017E-1,7.891099453E-1,3.718677521E0
3.869564064E0,6.862887144E-1,9.786672592E-1,4.130153656E0
3.874413699E0,8.346910477E-1,1.164031506E0,4.437961578E0
3.879264220E0,1.112475872E0,1.277103662E0,4.637732506E0
3.884115470E0,1.413437605E0,1.149769068E0,4.701080322E0
3.888965835E0,1.749166012E0,1.063621044E0,4.831685066E0
3.893815522E0,1.995690942E0,1.027000666E0,5.073044777E0
3.898666043E0,2.289998770E0,9.217796326E-1,5.327436447E0
3.903517293E0,2.462530613E0,6.728734970E-1,5.475735664E0
3.908367762E0,2.518634796E0,2.939579487E-1,5.594983101E0
3.913217345E0,2.545079231E0,-1.010560989E-1,5.664185524E0
3.918067866E0,2.470708370E0,-6.033084393E-1,5.642970085E0
3.922919116E0,2.396773815E0,-9.809658527E-1,5.586667061E0
3.927769585E0,2.247271061E0,-1.360370398E0,5.425878525E0
3.932619168E0,2.092301369E0,-1.731510162E0,5.208539963E0
3.937469689E0,1.968428850E0,-2.031740665E0,4.968183517E0
3.942320939E0,1.906893134E0,-2.179063559E0,4.675914764E0
3.947171407E0,1.922484040E0,-2.163321972E0,4.290997505E0
3.952021043E0,1.983742714E0,-2.134368420E0,3.863350868E0
3.956871512E0,2.032919884E0,-2.093680620E0,3.371111870E0
3.961722762E0,2.105882645E0,-2.035217285E0,2.876028061E0
3.966573230E0,2.132936239E0,-2.079605103E0,2.348786354E0
3.971422866E0,2.149418354E0,-2.043755054E0,1.805499077E0
3.976273387E0,2.136041880E0,-1.968168020E0,1.291461945E0
3.981124585E0,2.108867407E0,-2.031890631E0,8.110971451E-1
3.985975053E0,2.102989197E0,-2.143686056E0,3.329858780E-1
3.990824689E0,2.115255356E0,-2.243856430E0,-1.167049408E-1
3.995675210E0,2.221138000E0,-2.150529146E0,-5.144443512E-1
4.000526460E0,2.367380142E0,-2.103138685E0,-8.293409348E-1
4.005376824E0,2.419343948E0,-2.153984308E0,-1.126379013E0
4.010226512E0,2.412802458E0,-2.238234282E0,-1.314885139E0
4.015077032E0,2.340701103E0,-2.384270430E0,-1.385594368E0
4.019928282E0,2.270935535E0,-2.463032246E0,-1.357549667E0
4.024778751E0,2.209450006E0,-2.510623455E0,-1.242506504E0
4.029628335E0,2.161785364E0,-2.558180571E0,-1.152791023E0
4.034478855E0,2.116734028E0,-2.603430510E0,-1.107275009E0
4.039330105E0,2.060578823E0,-2.620398045E0,-1.050608635E0
4.044180574E0,2.017592669E0,-2.621149302E0,-9.970421791E-1
4.049030157E0,1.967026591E0,-2.613097906E0,-9.175848961E-1
4.053880678E0,1.947759390E0,-2.579567432E0,-8.360114098E-1
4.058731928E0,1.929250002E0,-2.537664890E0,-8.213500977E-1
4.063582397E0,1.870989084E0,-2.528188705E0,-8.973140717E-1
4.068432032E0,1.816054463E0,-2.522493362E0,-1.037431717E0
4.073282501E0,1.754744291E0,-2.506663322E0,-1.253368855E0
4.078133751E0,1.669601440E0,-2.507000923E0,-1.511718273E0
4.082984220E0,1.571977973E0,-2.490180016E0,-1.829218388E0
4.087833855E0,1.463555336E0,-2.432637215E0,-2.191451550E0
4.092684376E0,1.367395997E0,-2.353781462E0,-2.529113770E0
4.097535626E0,1.294623256E0,-2.253689051E0,-2.830466747E0
4.102385991E0,1.189441800E0,-2.197254419E0,-3.126694202E0
4.107235678E0,1.099237680E0,-2.127208471E0,-3.393940449E0
4.112086199E0,1.025866270E0,-2.093826294E0,-3.591724873E0
4.116937449E0,9.234995842E-1,-2.104568005E0,-3.760731220E0
4.121787918E0,8.183251619E-1,-2.045031071E0,-3.908005714E0
4.126637501E0,7.029348612E-1,-2.035171747E0,-3.992842674E0
4.131488022E0,6.129497290E-1,-2.105989456E0,-4.115838528E0
4.136339272E0,5.531879663E-1,-2.127813816E0,-4.229343414E0
4.141189741E0,4.809325933E-1,-2.121655464E0,-4.206840515E0
4.146039324E0,3.753383160E-1,-2.115857124E0,-4.134597778E0
4.150889845E0,2.849431038E-1,-2.047831059E0,-4.067705631E0
4.155741095E0,1.531257629E-1,-2.070760250E0,-4.008289337E0
4.160591564E0,4.262328148E-2,-2.069297791E0,-3.963610172E0
4.165441199E0,-3.648352623E-2,-2.000535965E0,-3.966922760E0
4.170291720E0,-3.868532181E-2,-1.912571430E0,-3.996512890E0
4.175142918E0,2.258062363E-3,-1.776494503E0,-3.999927044E0
4.179993387E0,4.803347588E-2,-1.628400803E0,-4.001019001E0
4.184843022E0,1.606118679E-1,-1.434995890E0,-3.994975567E0
4.189693543E0,3.039810658E-1,-1.234599113E0,-4.003339291E0
4.194544793E0,4.130383730E-1,-1.055739164E0,-4.059805870E0
4.199395157E0,4.897788763E-1,-8.506877422E-1,-4.176327229E0
4.204244845E0,6.319015026E-1,-6.029183865E-1,-4.425242901E0
4.209095366E0,6.687988043E-1,-3.767452240E-1,-4.538949490E0
4.213946616E0,5.336489677E-1,-2.466483116E-1,-4.289568424E0
4.218797085E0,4.674190283E-1,-8.817291260E-2,-4.088355541E0
4.223646668E0,3.414877653E-1,-1.325101852E-1,-4.007255077E0
4.228497189E0,1.230924129E-1,-1.347765923E-1,-3.955493927E0
4.233348439E0,-7.483839989E-2,-1.307010651E-3,-3.820807934E0
4.238198907E0,-2.833170891E-1,1.003613472E-1,-3.691761017E0
4.243048543E0,-4.006731510E-1,1.798982620E-1,-3.609354496E0
4.247899012E0,-3.991081715E-1,2.350711823E-1,-3.530776501E0
4.252750262E0,-3.408701420E-1,2.420787811E-1,-3.401051998E0
4.257600730E0,-2.348649502E-1,2.966151237E-1,-3.133961201E0
4.262450366E0,-1.713459492E-1,2.816195488E-1,-2.822843075E0
4.267300887E0,-1.663572788E-1,2.593626976E-1,-2.520194530E0
4.272152137E0,-2.267584801E-1,2.440166473E-1,-2.261705875E0
4.277002501E0,-2.781500816E-1,3.981728554E-1,-1.997058392E0
4.281852189E0,-2.867560387E-1,5.537939072E-1,-1.658975601E0
4.286702710E0,-2.814431190E-1,7.322015762E-1,-1.355067730E0
4.291553960E0,-2.938754559E-1,8.233752251E-1,-1.114124298E0
4.296404428E0,-3.174812794E-1,8.560547829E-1,-9.290103912E-1
4.301254012E0,-3.549680710E-1,9.041833878E-1,-7.087297440E-1
4.306104532E0,-3.972547054E-1,9.557466507E-1,-4.749460220E-1
4.310955782E0,-4.734621048E-1,9.794235229E-1,-2.324304581E-1
4.315806251E0,-5.548932552E-1,1.025243759E0,5.000495911E-2
4.320656720E0,-6.106183529E-1,1.062101364E0,3.292331696E-1
4.325506303E0,-6.427922249E-1,1.116218567E0,6.340780258E-1
4.330357605E0,-6.630351543E-1,1.127748966E0,9.574518204E-1
4.335208074E0,-6.635594368E-1,1.225746632E0,1.359342575E0
4.340057710E0,-5.818355083E-1,1.338412285E0,1.758425713E0
4.344908230E0,-4.660084248E-1,1.482015133E0,2.085545540E0
4.349759480E0,-3.331484795E-1,1.598829746E0,2.336090088E0
4.354609845E0,-1.906929016E-1,1.676647663E0,2.570014000E0
4.359459532E0,-6.958055496E-2,1.763037205E0,2.859258652E0
4.364310053E0,1.207971573E-2,1.831550598E0,3.271006584E0
4.369161303E0,8.657193184E-2,1.968250751E0,3.716931343E0
4.374011772E0,1.287826300E-1,2.086969852E0,4.108801842E0
4.378861355E0,1.874288321E-1,2.173502922E0,4.401403427E0
4.383711876E0,2.560247183E-1,2.275887489E0,4.616479874E0
4.388563126E0,3.443681002E-1,2.430139065E0,4.648915291E0
4.393413595E0,4.255000353E-1,2.650577545E0,4.529879570E0
4.398263178E0,3.910475969E-1,2.796005249E0,4.264196396E0
4.403113699E0,3.310095072E-1,3.044383526E0,3.997231483E0
4.407964949E0,1.777803898E-1,3.231194019E0,3.702246666E0
4.412815418E0,-5.993580818E-2,3.290494919E0,3.354685783E0
4.417665053E0,-3.153812885E-1,3.461671829E0,3.086017609E0
4.422515574E0,-6.278436184E-1,3.436482906E0,2.833539009E0
4.427366824E0,-9.844250679E-1,3.236955643E0,2.505830765E0
4.432217189E0,-1.324441195E0,2.950217724E0,2.214539528E0
4.437066876E0,-1.641551495E0,2.703671455E0,2.057151794E0
4.441917397E0,-1.900340080E0,2.514272213E0,1.995003700E0
4.446768647E0,-2.163494110E0,2.209506273E0,2.059081078E0
4.451619116E0,-2.424305439E0,1.698163271E0,2.220649719E0
4.456468699E0,-2.597266436E0,1.152450085E0,2.479550362E0
4.461319220E0,-2.744776964E0,5.263860226E-1,2.749857903E0
4.466170470E0,-2.793628931E0,5.893039703E-2,3.110366821E0
4.471020939E0,-2.812192440E0,-5.425424576E-1,3.314670563E0
4.475870574E0,-2.787937403E0,-7.482738495E-1,4.131992340E0
4.480721043E0,-2.715256453E0,-9.783864021E-1,4.986798286E0
4.485572293E0,-2.614364624E0,-1.306452513E0,5.664984703E0
4.490422762E0,-2.501583815E0,-1.731221676E0,6.076491356E0
4.495272397E0,-2.326167822E0,-2.033854961E0,6.394379616E0
4.500122918E0,-2.034523726E0,-2.180171251E0,6.607605934E0
4.504974168E0,-1.711795807E0,-2.461288929E0,6.623847008E0
4.509824532E0,-1.428820610E0,-2.718115330E0,6.549187660E0
4.514674220E0,-1.167879105E0,-2.876669407E0,6.340909004E0
4.519524741E0,-9.596252441E-1,-2.987004757E0,5.975219727E0
4.524375991E0,-8.356370926E-1,-2.977401733E0,5.430619240E0
4.529226460E0,-8.067660332E-1,-2.964645386E0,4.706776619E0
4.534076043E0,-8.762259483E-1,-2.859727383E0,3.970891953E0
4.538926564E0,-1.011440516E0,-2.702479839E0,3.296547890E0
4.543777814E0,-1.134787321E0,-2.532832146E0,2.637642860E0
4.548628282E0,-1.214570284E0,-2.378616571E0,1.861897469E0
4.553477918E0,-1.240555048E0,-2.281749964E0,1.040359497E0
4.558328387E0,-1.223101377E0,-2.164358854E0,3.661079407E-1
4.563179637E0,-1.169862986E0,-1.979670882E0,-2.023239136E-1
4.568030105E0,-1.169928789E0,-1.819589496E0,-7.207956314E-1
4.572879741E0,-1.187539816E0,-1.702028275E0,-1.182738304E0
4.577730262E0,-1.193906784E0,-1.620836258E0,-1.485957623E0
4.582581512E0,-1.176501751E0,-1.529332161E0,-1.709939480E0
4.587431876E0,-1.134238005E0,-1.474459648E0,-1.857287407E0
4.592281564E0,-1.119109631E0,-1.467191696E0,-1.957079887E0
4.597132085E0,-1.072544336E0,-1.504500389E0,-1.963941097E0
4.601983335E0,-1.026689529E0,-1.583585024E0,-1.827620506E0
4.606833803E0,-9.873609543E-1,-1.735579967E0,-1.650759220E0
4.611683387E0,-8.861675262E-1,-1.871999979E0,-1.392401218E0
4.616533907E0,-7.771062851E-1,-2.007404566E0,-1.169497490E0
4.621385157E0,-6.331043243E-1,-2.156611919E0,-9.911961555E-1
4.626235626E0,-5.182979107E-1,-2.293926716E0,-8.929376602E-1
4.631085262E0,-4.394147396E-1,-2.427452087E0,-7.832555771E-1
4.635935730E0,-3.457417488E-1,-2.562628984E0,-6.713275909E-1
4.640786980E0,-3.351814747E-1,-2.669262171E0,-6.380100250E-1
4.645637449E0,-3.217694759E-1,-2.776923180E0,-6.828699112E-1
4.650487085E0,-3.347406387E-1,-2.862699509E0,-7.911300659E-1
4.655337605E0,-3.413162231E-1,-2.903557777E0,-9.337983131E-1
4.660188855E0,-3.663394451E-1,-2.933685780E0,-1.144230843E0
4.665039220E0,-3.984749317E-1,-2.961169243E0,-1.355129242E0
4.669888907E0,-4.194326401E-1,-2.962762594E0,-1.616612434E0
4.674739428E0,-4.732916355E-1,-2.986573458E0,-1.921584129E0
4.679590678E0,-5.299563408E-1,-2.984896660E0,-2.272581577E0
4.684441147E0,-5.779538155E-1,-2.957914829E0,-2.621778011E0
4.689290782E0,-5.964937210E-1,-2.879359007E0,-2.938274860E0
4.694141251E0,-6.056904793E-1,-2.784967422E0,-3.253539562E0
4.698992501E0,-6.398773193E-1,-2.672185659E0,-3.543970108E0
4.703842970E0,-6.421160698E-1,-2.519170523E0,-3.800319195E0
4.708692605E0,-6.388046741E-1,-2.352112532E0,-3.994015217E0
4.713543126E0,-6.443486214E-1,-2.249170065E0,-4.199625015E0
4.718394376E0,-6.830508709E-1,-2.230860949E0,-4.422454357E0
4.723244741E0,-7.476282120E-1,-2.210307837E0,-4.567143440E0
4.728094428E0,-7.588479519E-1,-2.146038055E0,-4.583889961E0
4.732944949E0,-7.565248013E-1,-2.028164387E0,-4.511043549E0
4.737796199E0,-7.352957726E-1,-1.930418491E0,-4.408554077E0
4.742646668E0,-7.092816830E-1,-1.794976950E0,-4.305289268E0
4.747496251E0,-6.443622112E-1,-1.666918039E0,-4.218014717E0
4.752346772E0,-5.688676834E-1,-1.545880079E0,-4.087007046E0
4.757198022E0,-5.105764866E-1,-1.455614328E0,-3.835648060E0
4.762048491E0,-3.922674656E-1,-1.331268787E0,-3.645778656E0
4.766898126E0,-2.972846031E-1,-1.206370354E0,-3.459838390E0
4.771748595E0,-2.275569439E-1,-1.140972614E0,-3.220201492E0
4.776599845E0,-1.709296703E-1,-1.056255341E0,-2.912479877E0
4.781450314E0,-1.010115147E-1,-9.574382305E-1,-2.603489876E0
4.786299949E0,-3.192782402E-2,-8.714728355E-1,-2.290472031E0
4.791150470E0,5.066394806E-4,-7.701685429E-1,-1.994683743E0
4.796001720E0,8.496868610E-2,-6.107997894E-1,-1.715926170E0
4.800852189E0,1.834977865E-1,-4.731717110E-1,-1.396294117E0
4.805701772E0,2.863057852E-1,-4.054491520E-1,-1.140920639E0
4.810552293E0,3.187217712E-1,-3.625941277E-1,-1.014175415E0
4.815403543E0,3.257017136E-1,-3.375878334E-1,-9.968118668E-1
4.820254012E0,3.493012190E-1,-1.775364876E-1,-9.812479019E-1
4.825103647E0,3.593274355E-1,3.830766678E-2,-1.182927132E0
4.829954116E0,3.100988865E-1,1.672587395E-1,-1.463378429E0
4.834805366E0,3.732874393E-1,2.746415138E-1,-1.396801949E0
4.839655835E0,6.240285635E-1,5.468592644E-1,-1.167428017E0
4.844505470E0,8.800885677E-1,8.060965538E-1,-9.234323502E-1
4.849355991E0,1.128588676E0,1.010482311E0,-6.524453163E-1
4.854207241E0,1.282877088E0,1.125968933E0,-3.877687454E-1
4.859057605E0,1.376733661E0,1.188432693E0,-7.190418243E-2
4.863907293E0,1.415604711E0,1.248106956E0,2.545986176E-1
4.868757814E0,1.423824668E0,1.312216759E0,5.176658630E-1
4.873609064E0,1.360763073E0,1.330940723E0,7.052268982E-1
4.878459532E0,1.302955747E0,1.419290066E0,8.029336929E-1
4.883309116E0,1.309527636E0,1.639649391E0,8.225765228E-1
4.888159637E0,1.327903628E0,1.638619423E0,8.165588379E-1
4.893010887E0,1.351002216E0,1.697385311E0,7.054243088E-1
4.897861355E0,1.361979961E0,1.680356979E0,6.251583099E-1
4.902710991E0,1.408481240E0,1.755250931E0,6.161937714E-1
4.907561512E0,1.492557406E0,1.800262451E0,6.399784088E-1
4.912412762E0,1.587843299E0,1.798995972E0,6.723833084E-1
4.917263126E0,1.723257899E0,1.761379719E0,7.706546783E-1
4.922112814E0,1.870362282E0,1.713699818E0,9.060945511E-1
4.926963335E0,1.978679538E0,1.610691071E0,1.097642899E0
4.931814585E0,2.015469551E0,1.519443512E0,1.409873962E0
4.936665053E0,2.070797443E0,1.581280231E0,1.830799103E0
4.941514637E0,2.066891670E0,1.707499027E0,2.090307236E0
4.946365157E0,2.090257645E0,1.850515842E0,2.195640564E0
4.951216407E0,2.152820587E0,1.971921921E0,2.214001656E0
4.956066876E0,2.264244080E0,2.174650192E0,2.210028648E0
4.960916512E0,2.433941603E0,2.298407555E0,2.226763725E0
4.965767032E0,2.589920521E0,2.233238697E0,2.149412155E0
4.970618230E0,2.703947306E0,2.144263268E0,2.265172958E0
4.975468699E0,2.779945850E0,1.967497349E0,2.272074699E0
4.980318335E0,2.727256775E0,1.906497478E0,2.406911850E0
4.985168855E0,2.544243097E0,1.887118816E0,2.619387627E0
4.990020105E0,2.279139519E0,1.842133045E0,2.770935059E0
4.994870574E0,1.998966813E0,1.799772263E0,2.830860138E0
4.999720157E0,1.750590682E0,1.719181538E0,2.784906387E0
5.004570678E0,1.480442762E0,1.674453259E0,2.688115120E0
5.009421928E0,1.223658562E0,1.619721413E0,2.605212212E0
5.014272397E0,9.528689384E-1,1.533161640E0,2.483561516E0
5.019122032E0,7.408652306E-1,1.469696522E0,2.358881950E0
5.023972553E0,5.049583912E-1,1.367132187E0,2.261992455E0
5.028823751E0,2.726562023E-1,1.290055275E0,2.199784279E0
5.033674220E0,-4.654765129E-3,1.152406216E0,2.193535805E0
5.038523855E0,-2.746329308E-1,1.013918400E0,2.372286797E0
5.043374376E0,-5.129375458E-1,7.258148193E-1,2.623786926E0
5.048225626E0,-7.122517824E-1,4.794821739E-1,2.895425797E0
5.053076095E0,-8.359980583E-1,2.722468376E-1,3.244853973E0
5.057925678E0,-8.541029692E-1,5.120038986E-2,3.715463638E0
5.062776199E0,-8.874119520E-1,-1.646070480E-1,4.202208519E0
5.067627449E0,-8.939499855E-1,-4.237620831E-1,4.641145706E0
5.072477918E0,-8.845301867E-1,-7.343628407E-1,5.054544449E0
5.077327553E0,-8.221867085E-1,-1.075807095E0,5.407224655E0
5.082178022E0,-7.255692482E-1,-1.336899996E0,5.654453278E0
5.087029272E0,-5.868253708E-1,-1.504850864E0,5.880803108E0
5.091879741E0,-4.859268665E-1,-1.681771517E0,5.888256073E0
5.096729376E0,-3.530336618E-1,-1.825714827E0,5.767957687E0
5.101579897E0,-1.838815212E-1,-1.853830576E0,5.613519669E0
5.106431147E0,1.422512531E-2,-1.845762730E0,5.341512680E0
5.111281512E0,2.025417089E-1,-1.842503309E0,4.878000259E0
5.116131199E0,3.727653027E-1,-1.857585669E0,4.311125755E0
5.120981720E0,4.563456774E-1,-1.856681108E0,3.606875420E0
5.125832970E0,4.954706430E-1,-1.838662863E0,2.936930656E0
5.130683439E0,4.656840563E-1,-1.814300299E0,2.312601089E0
5.135533074E0,4.147731066E-1,-1.817956924E0,1.790575981E0
5.140383543E0,3.715225458E-1,-1.838638067E0,1.351037025E0
5.145234793E0,3.842142820E-1,-1.848545074E0,9.742155075E-1
5.150085262E0,4.387727976E-1,-1.868267775E0,6.596889496E-1
5.154934897E0,5.358178616E-1,-1.889719963E0,4.429807663E-1
5.159785418E0,6.757841110E-1,-1.909877300E0,2.783355713E-1
5.164636668E0,8.066650629E-1,-1.939973593E0,1.582860947E-1
5.169487032E0,9.032155275E-1,-1.996295452E0,8.037090302E-2
5.174336720E0,1.000090241E0,-2.035195827E0,4.923534393E-2
5.179187241E0,1.098468184E0,-2.085042000E0,2.180767059E-2
5.184038491E0,1.211357713E0,-2.134027481E0,3.119468689E-3
5.188888960E0,1.315577745E0,-2.131783962E0,-9.290027618E-2
5.193738543E0,1.399459720E0,-2.188600540E0,-1.703767776E-1
5.198589064E0,1.472717762E0,-2.221037149E0,-2.698335648E-1
5.203440314E0,1.499725103E0,-2.253486395E0,-4.005470276E-1
5.208290782E0,1.511541605E0,-2.281505346E0,-6.005907059E-1
5.213140418E0,1.503493547E0,-2.279171944E0,-7.931542397E-1
5.217990939E0,1.453912973E0,-2.270480156E0,-1.045207977E0
5.222842189E0,1.400773048E0,-2.257909060E0,-1.342355251E0
5.227692553E0,1.307783842E0,-2.251409292E0,-1.696369171E0
5.232542241E0,1.212290049E0,-2.255445004E0,-2.057335854E0
5.237392762E0,1.118709445E0,-2.267927408E0,-2.374933243E0
5.242244012E0,1.021742225E0,-2.279444695E0,-2.689881802E0
5.247094480E0,9.494857788E-1,-2.285187960E0,-3.033416748E0
5.251944116E0,8.248993158E-1,-2.278145313E0,-3.350534916E0
5.256794585E0,7.356594801E-1,-2.284532070E0,-3.670228004E0
5.261645835E0,6.430348158E-1,-2.282624722E0,-3.980754375E0
5.266496303E0,5.370180607E-1,-2.301189661E0,-4.251128197E0
5.271345939E0,4.197502136E-1,-2.304167509E0,-4.455276489E0
5.276196460E0,3.246228695E-1,-2.294057131E0,-4.590881824E0
5.281047710E0,2.180763483E-1,-2.301944971E0,-4.684371948E0
5.285898074E0,1.432400942E-1,-2.212974072E0,-4.728657722E0
5.290747762E0,6.155586243E-2,-2.151515961E0,-4.735883236E0
5.295598282E0,2.047300339E-3,-2.060326338E0,-4.708316326E0
5.300449532E0,-3.057551384E-2,-1.948793888E0,-4.679616928E0
5.305300001E0,-5.752420425E-2,-1.862534761E0,-4.642438889E0
5.310149637E0,-7.177400589E-2,-1.760990858E0,-4.627849102E0
5.315000105E0,-6.387019157E-2,-1.651338577E0,-4.590423584E0
5.319851355E0,-2.531528473E-3,-1.493179798E0,-4.506084919E0
5.324701824E0,-6.252408028E-2,-1.583072424E0,-4.444273472E0
5.329551460E0,-1.164302826E-1,-1.609744549E0,-4.328369617E0
5.334401980E0,-1.420960426E-1,-1.537409306E0,-4.151096821E0
5.339253230E0,-1.271653175E-1,-1.375788689E0,-3.969782352E0
5.344103595E0,-8.587551117E-2,-1.096649170E0,-3.808102131E0
5.348953282E0,-4.512763023E-2,-8.582336903E-1,-3.649280548E0
5.353803803E0,-1.971817017E-2,-7.183985710E-1,-3.555308819E0
5.358655053E0,-4.825806618E-2,-6.008682251E-1,-3.449484348E0
5.363505522E0,-3.743886948E-2,-4.770355225E-1,-3.398714066E0
5.368355157E0,-4.495239258E-2,-3.778328896E-1,-3.362432480E0
5.373205626E0,5.378484726E-3,-2.433404922E-1,-3.402941704E0
5.378056876E0,3.153324127E-3,-8.302116394E-2,-3.350538731E0
5.382907345E0,-8.028888702E-2,8.891344070E-2,-3.250858307E0
5.387756980E0,-1.147382259E-1,2.888956070E-1,-2.969643116E0
5.392607501E0,-1.873881817E-1,3.614253998E-1,-2.870795250E0
5.397458751E0,-1.349236965E-1,4.359517097E-1,-2.849380493E0
5.402309220E0,8.187977076E-1,5.950727463E-1,-3.559524536E0
5.407158803E0,7.982567549E-1,3.379316330E-1,-3.171722889E0
5.412009324E0,6.014060974E-2,2.871665955E-1,-2.384653568E0
5.416860574E0,-4.981009960E-1,3.149785995E-1,-1.472242355E0
5.421711043E0,-8.889961243E-1,5.109314919E-1,-9.309124947E-1
5.426560678E0,-1.125950336E0,7.022266388E-1,-6.813850403E-1
5.431411147E0,-1.392698526E0,7.641420364E-1,-5.800437927E-1
5.436262397E0,-1.484516501E0,7.806620598E-1,-4.356966019E-1
5.441112866E0,-1.353805184E0,8.403306007E-1,-2.388458252E-1
5.445962501E0,-1.143549323E0,9.309210777E-1,7.049179077E-2
5.450813022E0,-7.840023041E-1,1.030767918E0,2.316942215E-1
5.455664272E0,-8.330562115E-1,1.167963982E0,8.959789276E-1
5.460514741E0,-4.983402491E-1,1.193904877E0,1.099307060E0
5.465364324E0,-1.901299953E-1,1.225775719E0,1.203161240E0
5.470214845E0,2.869105339E-2,1.275508404E0,1.319890022E0
5.475066095E0,2.082335949E-1,1.345164299E0,1.490224838E0
5.479916564E0,3.149826527E-1,1.439107418E0,1.616231918E0
5.484766199E0,3.100389242E-1,1.619363785E0,1.709831238E0
5.489616720E0,2.943010330E-1,1.711182594E0,1.828546524E0
5.494467918E0,2.706425190E-1,1.846632481E0,1.929158211E0
5.499318387E0,2.825094461E-1,1.961698532E0,1.977973938E0
5.504168022E0,3.252108097E-1,2.054422379E0,2.001172066E0
5.509018543E0,3.770190477E-1,2.097009182E0,2.000695229E0
5.513869793E0,4.506305456E-1,2.178663254E0,2.055274010E0
5.518720262E0,6.073181629E-1,2.247854233E0,2.245840073E0
5.523569845E0,7.292963266E-1,2.187745571E0,2.306563377E0
5.528420366E0,5.831696987E-1,1.986617088E0,2.430983543E0
5.533271616E0,3.232853413E-1,2.041570663E0,2.887020111E0
5.538122085E0,4.494619370E-2,2.104188442E0,3.432843208E0
5.542971720E0,-1.666046381E-1,2.112610817E0,3.815059662E0
5.547822241E0,-2.587056160E-1,2.057445049E0,4.062618256E0
5.552673491E0,-3.318226337E-1,2.017518520E0,4.214144707E0
5.557523855E0,-3.695331812E-1,2.042200565E0,4.332392693E0
5.562373543E0,-3.941423893E-1,1.953317642E0,4.324687004E0
5.567224064E0,-4.592317343E-1,1.864840984E0,4.179600716E0
5.572075314E0,-4.818638563E-1,1.879063606E0,4.005078316E0
5.576925782E0,-5.706924200E-1,1.919037342E0,3.789200783E0
5.581775366E0,-7.364633083E-1,1.862834454E0,3.512634277E0
5.586625887E0,-9.637539387E-1,1.801394463E0,3.213426590E0
5.591477137E0,-1.196918488E0,1.734304428E0,2.905701637E0
5.596327605E0,-1.463851452E0,1.591593266E0,2.641925812E0
5.601177241E0,-1.730101585E0,1.576235294E0,2.350023270E0
5.606027762E0,-1.827283144E0,1.968483925E0,2.057939529E0
5.610879012E0,-2.002283573E0,2.261684418E0,1.894209862E0
5.615729376E0,-1.956966639E0,2.435801506E0,1.687927246E0
5.620579064E0,-2.162683010E0,2.166234016E0,1.689907074E0
5.625429585E0,-2.330310106E0,1.870203018E0,1.607671738E0
5.630280835E0,-2.536700726E0,1.424199581E0,1.708638191E0
5.635131303E0,-2.850571394E0,8.193264008E-1,1.975771904E0
5.639980887E0,-3.091361284E0,1.128664017E-1,2.296962738E0
5.644831407E0,-3.234493971E0,-7.173190117E-1,2.696647644E0
5.649682657E0,-3.349000931E0,-1.534273148E0,3.182898521E0
5.654533126E0,-3.381853104E0,-2.165802479E0,3.687448502E0
5.659382762E0,-3.307339668E0,-2.632599831E0,4.247260094E0
5.664233282E0,-3.051689148E0,-2.806592464E0,4.832130432E0
5.669084532E0,-2.702054262E0,-2.950484514E0,5.206424713E0
5.673935001E0,-2.270338774E0,-3.013226032E0,5.327992439E0
5.678784585E0,-1.763931990E0,-3.039798498E0,5.269578934E0
5.683635105E0,-1.182677507E0,-2.971490145E0,5.091658592E0
5.688486355E0,-6.074090004E-1,-2.837739706E0,4.696781158E0
5.693336824E0,-1.293792725E-1,-2.717348337E0,4.161610603E0
5.698186460E0,1.408479214E-1,-2.690505505E0,3.476211548E0
5.703036928E0,2.436072826E-1,-2.616740704E0,2.800231934E0
5.707888178E0,1.585505009E-1,-2.537570000E0,2.092067719E0
5.712738647E0,-9.645938873E-2,-2.566253185E0,1.412972450E0
5.717588282E0,-3.765232563E-1,-2.622305393E0,7.787837982E-1
5.722438803E0,-6.178109646E-1,-2.704486370E0,1.194372177E-1
5.727290053E0,-7.780048847E-1,-2.727449656E0,-4.152727127E-1
5.732140522E0,-8.503346443E-1,-2.609006882E0,-8.451232910E-1
5.736990105E0,-8.350098133E-1,-2.554026127E0,-1.185040951E0
5.741840626E0,-7.511184216E-1,-2.453862667E0,-1.394903183E0
5.746691876E0,-6.194729805E-1,-2.379326105E0,-1.520581245E0
5.751542345E0,-4.627122879E-1,-2.386692762E0,-1.538496017E0
5.756391980E0,-2.529335022E-1,-2.367069960E0,-1.489687443E0
5.761242501E0,-6.750035286E-2,-2.398268938E0,-1.388869286E0
5.766093751E0,1.167098284E-1,-2.431571722E0,-1.181291580E0
5.770944116E0,3.063164949E-1,-2.483462334E0,-9.577860832E-1
5.775793803E0,4.930601120E-1,-2.513089180E0,-7.063474655E-1
5.780644324E0,6.469556093E-1,-2.499364853E0,-4.816684723E-1
5.785495574E0,8.380706310E-1,-2.500651121E0,-2.807807922E-1
5.790346043E0,9.706630707E-1,-2.501222134E0,-1.916542053E-1
5.795195626E0,1.094516993E0,-2.435374498E0,-1.634216309E-1
5.800046147E0,1.247550249E0,-2.481207132E0,-1.740131378E-1
5.804897397E0,1.369423509E0,-2.529347181E0,-2.637453079E-1
5.809747866E0,1.418777823E0,-2.602133989E0,-4.465885162E-1
5.814597501E0,1.430680275E0,-2.652542591E0,-6.982607841E-1
5.819448022E0,1.397100687E0,-2.667423010E0,-9.775910378E-1
5.824299272E0,1.321787238E0,-2.683456421E0,-1.301104069E0
5.829149637E0,1.208963037E0,-2.682242393E0,-1.580019951E0
5.833999324E0,1.160732508E0,-2.530579805E0,-1.833331108E0
5.838849845E0,1.121258140E0,-2.370304823E0,-2.094406128E0
5.843701095E0,1.099199176E0,-2.223496914E0,-2.334445000E0
5.848551564E0,1.076933146E0,-2.116595268E0,-2.627691746E0
5.853401199E0,1.094553351E0,-2.047245979E0,-2.897623539E0
5.858251668E0,1.067896366E0,-1.979254723E0,-3.115789413E0
5.863102918E0,1.082832813E0,-1.917045832E0,-3.308771133E0
5.867953387E0,1.072277427E0,-1.848424911E0,-3.479090214E0
5.872803022E0,1.053209186E0,-1.722482204E0,-3.588809967E0
5.877653543E0,1.035481215E0,-1.583985329E0,-3.628736019E0
5.882504793E0,1.036872983E0,-1.441951990E0,-3.625316620E0
5.887355262E0,1.053355813E0,-1.302915573E0,-3.633774281E0
5.892204845E0,1.087892532E0,-1.199523449E0,-3.628114223E0
5.897055366E0,1.158012867E0,-1.092841387E0,-3.625284195E0
5.901906616E0,1.254569173E0,-9.657871723E-1,-3.630181789E0
5.906757085E0,1.372824430E0,-8.083853722E-1,-3.654996872E0
5.911606720E0,1.484543562E0,-6.633534431E-1,-3.644846916E0
5.916457241E0,1.571155787E0,-5.234146118E-1,-3.578234196E0
5.921308491E0,1.628105760E0,-4.124650955E-1,-3.483921528E0
5.926158855E0,1.650965691E0,-3.209710121E-1,-3.397747040E0
5.931008543E0,1.656385183E0,-2.608475685E-1,-3.326931000E0
5.935859064E0,1.644364595E0,-1.845469475E-1,-3.247388363E0
5.940710314E0,1.599928260E0,-9.450483322E-2,-3.171194553E0
5.945560782E0,1.541748881E0,-5.328512192E-2,-3.062350273E0
5.950410366E0,1.448020339E0,-5.632066727E-2,-2.937529564E0
5.955260887E0,1.351843596E0,-3.923749924E-2,-2.784724712E0
5.960112137E0,1.231609702E0,-5.969381332E-2,-2.637317181E0
5.964962605E0,1.089631081E0,-7.478761673E-2,-2.454560280E0
5.969812241E0,9.976186752E-1,-3.665924072E-2,-2.277177811E0
5.974662762E0,9.172812700E-1,3.057909012E-2,-2.083558083E0
5.979514012E0,8.750405312E-1,4.550933838E-2,-1.887997627E0
5.984364480E0,8.259786367E-1,-1.341438293E-2,-1.649718761E0
5.989214064E0,8.067611456E-1,-5.525588989E-2,-1.351922989E0
5.994064585E0,8.251723051E-1,-1.208214760E-1,-1.082996845E0
5.998915835E0,8.362352252E-1,-1.361608505E-1,-8.762083054E-1
6.003766303E0,8.088085651E-1,-1.035742760E-1,-7.554998398E-1
6.008615939E0,7.667938471E-1,-6.398391724E-2,-6.417512894E-1
6.013466460E0,6.713416576E-1,-9.158706665E-2,-5.995626450E-1
6.018317710E0,5.978776217E-1,-3.114175797E-2,-5.810208321E-1
6.023168074E0,5.268421173E-1,6.247711182E-2,-5.767183304E-1
6.028017762E0,5.206015110E-1,2.185626030E-1,-4.889431000E-1
6.032868282E0,5.168027878E-1,4.230394363E-1,-4.686555862E-1
6.037719532E0,4.975812435E-1,5.276608467E-1,-5.278949738E-1
6.042570001E0,4.072387218E-1,5.850648880E-1,-5.900812149E-1
6.047419637E0,4.222466946E-1,6.480035782E-1,-6.290149689E-1
6.052270105E0,4.632438421E-1,7.189278603E-1,-6.065297127E-1
6.057121355E0,5.968846083E-1,8.028860092E-1,-5.396118164E-1
6.061971824E0,7.299192548E-1,8.809132576E-1,-3.853387833E-1
6.066821460E0,9.393197894E-1,9.911904335E-1,-7.196426392E-2
6.071671980E0,1.132332444E0,9.879388809E-1,2.712173462E-1
6.076523230E0,1.350747347E0,1.019296169E0,6.683607101E-1
6.081373699E0,1.547310829E0,9.800510406E-1,9.544620514E-1
6.086223282E0,1.618203402E0,7.869691849E-1,1.253930092E0
6.091073803E0,1.793008327E0,1.097670078E0,1.691364288E0
6.095925053E0,1.819958091E0,1.007118702E0,1.967947960E0
6.100775522E0,1.863074064E0,1.079938412E0,2.236897469E0
6.105625157E0,1.958857417E0,1.179175854E0,2.570254326E0
6.110475626E0,2.156709909E0,1.311463356E0,2.913345337E0
6.115326928E0,2.347888947E0,1.390418530E0,3.094232559E0
6.120177293E0,2.535037994E0,1.435806274E0,3.158243179E0
6.125026980E0,2.641827345E0,1.469314575E0,3.153287888E0
6.129877501E0,2.567080736E0,1.417809010E0,3.052564621E0
6.134728751E0,2.367363930E0,1.346401691E0,2.903709412E0
6.139579220E0,2.114726305E0,1.575793266E0,2.931452751E0
6.144428803E0,1.854234338E0,1.761552334E0,2.783942223E0
6.149279324E0,1.615948200E0,1.925432205E0,2.482779503E0
6.154130574E0,1.467412472E0,2.072458744E0,2.116391182E0
6.158981043E0,1.315295935E0,2.147729874E0,1.708538055E0
6.163830678E0,1.226433039E0,2.213623047E0,1.342666626E0
6.168681199E0,1.172344208E0,2.241985798E0,1.070856094E0
6.173532449E0,1.152179956E0,2.321877956E0,1.033724785E0
6.178382918E0,1.211073518E0,2.455961227E0,1.238003731E0
6.183232501E0,1.291479588E0,2.477106571E0,1.625917435E0
6.188083022E0,1.196868658E0,2.096302986E0,2.027443886E0
6.192934272E0,1.015049219E0,1.539055347E0,2.727282524E0
6.197784741E0,8.049509525E-1,1.013442039E0,3.567620277E0
6.202634376E0,6.109945774E-1,5.064096451E-1,4.467751503E0
6.207484897E0,4.318211377E-1,-3.847956657E-2,5.325641632E0
6.212336095E0,3.525433242E-1,-5.055274963E-1,6.190032005E0
6.217186564E0,3.944423497E-1,-8.823430538E-1,7.014095306E0
6.222036199E0,5.524444580E-1,-1.178420544E0,7.691331863E0
6.226886720E0,8.278582096E-1,-1.374616385E0,8.151114464E0
6.231737970E0,1.180418134E0,-1.468670845E0,8.377809525E0
6.236588439E0,1.524166584E0,-1.491272926E0,8.357930183E0
6.241438074E0,1.880781651E0,-1.448892832E0,8.171146393E0
6.246288543E0,2.187393188E0,-1.448237896E0,7.839549065E0
6.251139793E0,2.443255663E0,-1.432916403E0,7.322936058E0
6.255990262E0,2.587524891E0,-1.367283344E0,6.645429611E0
6.260839897E0,2.633402109E0,-1.272213221E0,5.849965096E0
6.265690418E0,2.536139250E0,-1.151038647E0,4.986301422E0
6.270541668E0,2.327830791E0,-1.074056864E0,4.113752365E0
6.275392137E0,2.069727898E0,-1.039127827E0,3.286572456E0
6.280241720E0,1.897353649E0,-1.065542221E0,2.573238373E0
6.285092241E0,1.721606493E0,-1.115336657E0,1.920244217E0
6.289943491E0,1.575712919E0,-1.167389393E0,1.355435371E0
6.294793960E0,1.454611182E0,-1.248309612E0,8.419532776E-1
6.299643595E0,1.361282468E0,-1.285160065E0,4.749088287E-1
6.304494116E0,1.305764437E0,-1.293362617E0,2.200345993E-1
6.309345366E0,1.305138350E0,-1.274107933E0,-1.188373566E-2
6.314195730E0,1.302919149E0,-1.294302702E0,-1.778726578E-1
6.319045418E0,1.364293337E0,-1.322028637E0,-3.119039536E-1
6.323895939E0,1.411238432E0,-1.373677015E0,-4.189853668E-1
6.328747189E0,1.480655909E0,-1.401311874E0,-5.039968491E-1
6.333597657E0,1.516067147E0,-1.452584267E0,-5.910062790E-1
6.338447241E0,1.587967634E0,-1.506277561E0,-6.439876556E-1
6.343297762E0,1.641768813E0,-1.552995205E0,-7.227191925E-1
6.348149012E0,1.685360193E0,-1.590922832E0,-8.101501465E-1
6.352999480E0,1.692571521E0,-1.618079901E0,-8.797950745E-1
6.357849116E0,1.706630945E0,-1.649447680E0,-1.005494595E0
6.362699637E0,1.698864102E0,-1.604220390E0,-1.105628967E0
6.367550887E0,1.703004122E0,-1.516570091E0,-1.220542908E0
6.372401355E0,1.668047667E0,-1.554495811E0,-1.491032124E0
6.377250939E0,1.559566379E0,-1.641426325E0,-1.763875008E0
6.382101460E0,1.434611797E0,-1.791773319E0,-1.940982342E0
6.386952710E0,1.266911268E0,-1.948076487E0,-2.122879505E0
6.391803178E0,1.115983248E0,-2.064952850E0,-2.299971581E0
6.396652814E0,1.000504494E0,-2.176194191E0,-2.496048927E0
6.401503335E0,8.744802475E-1,-2.219807148E0,-2.737332344E0
6.406354585E0,7.611078620E-1,-2.229449034E0,-2.935297489E0
6.411205053E0,6.022790670E-1,-2.221939087E0,-3.121131420E0
6.416054637E0,4.885194004E-1,-2.197521687E0,-3.270859718E0
6.420905157E0,3.451293111E-1,-2.189845800E0,-3.396465778E0
6.425756407E0,2.144126892E-1,-2.158004284E0,-3.502994061E0
6.430606876E0,1.250241995E-1,-2.109551430E0,-3.556823730E0
6.435456512E0,4.298782349E-2,-2.089837074E0,-3.622711658E0
6.440307032E0,1.839804649E-2,-2.003140688E0,-3.691137314E0
6.445158282E0,4.437637329E-2,-1.923719883E0,-3.678357124E0
6.450008647E0,9.233820438E-2,-1.853919744E0,-3.706434727E0
6.454858335E0,1.097903252E-1,-1.831936836E0,-3.689260483E0
6.459708855E0,8.764266968E-2,-1.821964979E0,-3.650691032E0
6.464560105E0,1.025327444E-1,-1.766366005E0,-3.586102009E0
6.469410574E0,9.498476982E-2,-1.734544039E0,-3.555258751E0
6.474260210E0,1.294560432E-1,-1.630538225E0,-3.510488033E0
6.479110678E0,1.413667202E-1,-1.523583889E0,-3.468659878E0
6.483961928E0,1.861406565E-1,-1.411402941E0,-3.365097046E0
6.488812397E0,2.161303759E-1,-1.310701132E0,-3.247694016E0
6.493662032E0,2.386679649E-1,-1.231150389E0,-3.161812782E0
6.498512553E0,2.608740330E-1,-1.143965483E0,-3.085941792E0
6.503363803E0,2.849228382E-1,-1.025326967E0,-3.005712032E0
6.508214272E0,2.891733646E-1,-9.254188538E-1,-2.928366184E0
6.513063855E0,2.856761217E-1,-8.205184937E-1,-2.774862766E0
6.517914376E0,3.150593042E-1,-6.866955757E-1,-2.626617432E0
6.522765626E0,3.010015488E-1,-5.455341339E-1,-2.490746975E0
6.527616095E0,3.032104969E-1,-5.020980835E-1,-2.374521732E0
6.532465730E0,2.976305485E-1,-4.584302902E-1,-2.225218296E0
6.537316251E0,2.389849424E-1,-4.505167007E-1,-2.059525013E0
6.542167501E0,2.207537889E-1,-4.042649269E-1,-1.822397232E0
6.547017866E0,1.809926033E-1,-3.533916473E-1,-1.592675209E0
6.551867553E0,1.700618267E-1,-2.863039970E-1,-1.353383541E0
6.556718074E0,1.663585901E-1,-2.201089859E-1,-1.185634613E0
6.561569324E0,1.269546747E-1,-1.813669205E-1,-1.031778336E0
6.566419793E0,1.142305136E-1,-1.391119957E-1,-9.227614403E-1
6.571269428E0,7.100522518E-2,-8.873128891E-2,-7.938232422E-1
6.576119897E0,2.613115311E-2,-2.531385422E-2,-6.689553261E-1
6.580971199E0,3.687739372E-3,5.824041367E-2,-5.863385201E-1
6.585821564E0,3.517746925E-3,1.477165222E-1,-5.723257065E-1
6.590671251E0,-1.070261002E-2,2.144503593E-1,-5.432295799E-1
6.595521772E0,-5.646944046E-3,3.062491417E-1,-5.038490295E-1
6.600373022E0,-8.205533028E-3,3.658995628E-1,-4.615826607E-1
6.605223491E0,-2.110755444E-2,4.196515083E-1,-4.523048401E-1
6.610073074E0,-1.587033272E-2,5.058574677E-1,-4.808464050E-1
6.614923595E0,3.361761570E-2,6.320762634E-1,-5.546169281E-1
6.619774845E0,7.948505878E-2,7.437496185E-1,-5.782136917E-1
6.624625314E0,1.456023455E-1,8.509049416E-1,-6.237154007E-1
6.629474949E0,1.768268347E-1,8.893661499E-1,-5.909337997E-1
6.634325470E0,1.919422150E-1,9.504141808E-1,-5.854640007E-1
6.639176720E0,2.126560211E-1,9.650063515E-1,-5.070285797E-1
6.644027189E0,2.295250893E-1,1.007426739E0,-3.772897720E-1
6.648876772E0,2.355031967E-1,1.008400917E0,-2.346205711E-1
6.653727293E0,2.073527575E-1,9.443612099E-1,-9.345054626E-2
6.658578543E0,3.135045767E-1,9.805932045E-1,2.160358429E-1
6.663429012E0,3.627470732E-1,1.030814648E0,4.115667343E-1
6.668278647E0,3.403567076E-1,9.610109329E-1,5.219478607E-1
6.673129168E0,2.941962481E-1,8.790717125E-1,6.452236176E-1
6.677980418E0,1.722688675E-1,7.685422897E-1,7.334947586E-1
6.682830782E0,7.085704803E-2,7.347111702E-1,9.016580582E-1
6.687680470E0,-6.499791145E-2,7.177753448E-1,9.798183441E-1
6.692530991E0,-1.206027269E-1,7.339134216E-1,1.169265747E0
6.697382241E0,-1.321184635E-1,7.798981667E-1,1.367510796E0
6.702232710E0,-1.667966843E-1,7.664184570E-1,1.476971626E0
6.707082345E0,-1.434092522E-1,7.575025558E-1,1.507678986E0
6.711932866E0,-1.315129995E-1,7.603454590E-1,1.447734833E0
6.716784064E0,-1.315753460E-1,8.395867348E-1,1.311445236E0
6.721634532E0,-1.085499525E-1,9.550919533E-1,1.112716675E0
6.726484168E0,-7.530021667E-2,1.075974464E0,9.636907578E-1
6.731334689E0,-2.375113964E-2,1.221735001E0,8.398780823E-1
6.736185939E0,3.022015095E-2,1.366325855E0,7.360067368E-1
6.741036407E0,7.604146004E-2,1.505581379E0,7.017183304E-1
6.745885991E0,1.776647568E-2,1.589855194E0,8.824281693E-1
6.750736512E0,-4.813957214E-2,1.562137127E0,1.242007256E0
6.755587762E0,-1.034364700E-1,1.415622234E0,1.818707466E0
6.760438230E0,-1.534425020E-1,1.200625896E0,2.490754128E0
6.765287866E0,-1.866687536E-1,9.577994347E-1,3.141318321E0
6.770138387E0,-1.843917370E-1,6.005058289E-1,3.720952034E0
6.774989637E0,-2.290176153E-1,1.957416534E-1,4.165486336E0
6.779840105E0,-3.027387857E-1,-2.234973907E-1,4.532961845E0
6.784689689E0,-3.711110353E-1,-6.629052162E-1,4.807414055E0
6.789540210E0,-4.810281992E-1,-1.049080133E0,5.020597458E0
6.794391460E0,-6.297029257E-1,-1.406792641E0,5.063069344E0
6.799241928E0,-8.008642197E-1,-1.667704344E0,4.952200890E0
6.804091564E0,-9.693239927E-1,-1.811227560E0,4.647758484E0
6.808942032E0,-1.165442228E0,-1.881412268E0,4.159706116E0
6.813793335E0,-1.326585174E0,-1.867182732E0,3.631786346E0
6.818643699E0,-1.483372211E0,-1.805137396E0,3.092702866E0
6.823493387E0,-1.625799537E0,-1.741239548E0,2.563849449E0
6.828343907E0,-1.748434067E0,-1.661442757E0,2.033059120E0
6.833195157E0,-1.824134111E0,-1.561192036E0,1.562302589E0
6.838045626E0,-1.865904927E0,-1.459658623E0,1.165662766E0
6.842895262E0,-1.884003162E0,-1.370598793E0,8.569755554E-1
6.847745730E0,-1.883049607E0,-1.269433737E0,6.789016724E-1
6.852596980E0,-1.828802109E0,-1.145639181E0,5.974884033E-1
6.857447449E0,-1.722556591E0,-1.062824249E0,5.836687088E-1
6.862297085E0,-1.577311754E0,-1.000750542E0,6.299266815E-1
6.867147605E0,-1.406314969E0,-9.441194534E-1,6.857233047E-1
6.871998855E0,-1.186710954E0,-8.871629238E-1,7.340402603E-1
6.876849324E0,-9.341989756E-1,-8.386178017E-1,7.555017471E-1
6.881698907E0,-7.171700001E-1,-7.879760265E-1,7.713031769E-1
6.886549428E0,-5.299537182E-1,-7.655959129E-1,7.213897705E-1
6.891400678E0,-3.909590244E-1,-7.132635117E-1,6.628713608E-1
6.896251147E0,-2.830061913E-1,-7.117435932E-1,6.026430130E-1
6.901100782E0,-1.693892479E-1,-7.033605576E-1,5.717449188E-1
6.905951303E0,-1.046265364E-1,-7.143495083E-1,5.366563797E-1
6.910802553E0,-1.176559925E-2,-7.234268188E-1,5.071153641E-1
6.915653022E0,7.089340687E-2,-7.528996468E-1,4.404792786E-1
6.920502605E0,1.550761461E-1,-8.152561188E-1,3.514022827E-1
6.925353126E0,2.117861509E-1,-8.682899475E-1,2.259883881E-1
6.930204376E0,2.742879391E-1,-9.297235012E-1,7.433223724E-2
6.935054845E0,3.014935255E-1,-9.668533802E-1,-5.535602570E-2
6.939904480E0,3.553328514E-1,-9.949395657E-1,-1.602945328E-1
6.944755001E0,3.971508741E-1,-1.021841526E0,-3.143386841E-1
6.949606199E0,3.976416588E-1,-1.055433273E0,-5.315036774E-1
6.954456668E0,3.872834444E-1,-1.067486048E0,-7.589550018E-1
6.959306303E0,3.872102499E-1,-1.108772278E0,-1.008428574E0
6.964156824E0,3.559728861E-1,-1.131602526E0,-1.232094765E0
6.969008074E0,3.149378300E-1,-1.169705153E0,-1.446640968E0
6.973858543E0,2.732286453E-1,-1.187201977E0,-1.695177078E0
6.978708178E0,2.497608662E-1,-1.195744991E0,-1.922861099E0
6.983558647E0,1.798709631E-1,-1.206822634E0,-2.149096966E0
6.988409897E0,1.114079952E-1,-1.205801010E0,-2.345335960E0
6.993260366E0,5.393171310E-2,-1.204072475E0,-2.487994194E0
6.998110001E0,2.185237408E-2,-1.174921513E0,-2.596462250E0
7.002960522E0,-4.223227501E-3,-1.170475721E0,-2.680633068E0
7.007811772E0,-4.338109493E-2,-1.152209759E0,-2.764558792E0
7.012662241E0,-9.323823452E-2,-1.179608107E0,-2.855573177E0
7.017511824E0,-1.299479008E-1,-1.204500198E0,-2.860574245E0
7.022362345E0,-1.702120304E-1,-1.193416834E0,-2.844221115E0
7.027213595E0,-1.946918964E-1,-1.155822992E0,-2.797022343E0
7.032064064E0,-1.671534777E-1,-1.103812695E0,-2.742824554E0
7.036913699E0,-1.355280876E-1,-1.010908365E0,-2.672179222E0
7.041764220E0,-8.503794670E-2,-9.009664059E-1,-2.597062588E0
7.046615470E0,-2.009701729E-2,-8.218505383E-1,-2.471992016E0
7.051465835E0,4.511380196E-2,-7.543852329E-1,-2.387875080E0
7.056315522E0,1.133223772E-1,-6.723906994E-1,-2.320639133E0
7.061166043E0,1.937184334E-1,-5.373721123E-1,-2.256100178E0
7.066017293E0,2.480854988E-1,-3.808779716E-1,-2.213166714E0
7.070867762E0,2.690141201E-1,-2.291035652E-1,-2.153657436E0
7.075717397E0,2.706916332E-1,-1.372437477E-1,-2.106203079E0
7.080567866E0,2.651467323E-1,-5.268621445E-2,-2.044444084E0
7.085419168E0,2.378410101E-1,3.158092499E-3,-1.982821465E0
7.090269532E0,2.075713873E-1,6.586456299E-2,-1.935547829E0
7.095119220E0,1.621074677E-1,1.234622002E-1,-1.885894775E0
7.099969741E0,9.877353907E-2,2.046475410E-1,-1.778900623E0
7.104820991E0,2.743303776E-2,2.448129654E-1,-1.588288307E0
7.109671460E0,-1.305896044E-2,2.751421928E-1,-1.330854416E0
7.114521043E0,-1.016581059E-2,2.931122780E-1,-1.073483944E0
7.119371564E0,1.501911879E-2,3.202614784E-1,-8.352518082E-1
7.124222814E0,5.346637964E-2,3.303380013E-1,-6.687083244E-1
7.129073282E0,1.127110124E-1,3.783559799E-1,-5.498123169E-1
7.133922918E0,1.544789076E-1,4.405312538E-1,-4.833841324E-1
7.138773439E0,1.618835330E-1,5.098876953E-1,-4.527587891E-1
7.143624689E0,1.563372612E-1,5.937414169E-1,-4.221258163E-1
7.148475053E0,1.689188480E-1,6.728525162E-1,-3.005781174E-1
7.153324741E0,1.753762960E-1,7.474460602E-1,-1.816387177E-1
7.158175262E0,1.825120449E-1,8.294234276E-1,-8.683300018E-2
7.163026512E0,1.609355211E-1,8.568692207E-1,-4.027175903E-2
7.167876980E0,1.508458257E-1,8.824930191E-1,-6.103515625E-3
7.172726564E0,1.423071623E-1,9.160389900E-1,8.727455139E-2
7.177577085E0,1.663050056E-1,9.266571999E-1,2.133321762E-1
7.182428335E0,1.941505075E-1,8.929457664E-1,4.054565430E-1
7.187278803E0,2.309882641E-1,8.603229523E-1,5.847339630E-1
7.192128439E0,2.532117963E-1,7.595262527E-1,7.726831436E-1
7.196978960E0,2.993314862E-1,6.767463684E-1,9.740905762E-1
7.201830210E0,3.526998758E-1,6.072726250E-1,1.217586517E0
7.206680678E0,4.089467525E-1,5.817265511E-1,1.446033478E0
7.211530262E0,4.514726102E-1,5.591430664E-1,1.657227516E0
7.216380782E0,4.827568829E-1,5.584926605E-1,1.815416336E0
7.221232032E0,5.459969044E-1,5.196590424E-1,2.009336472E0
7.226082501E0,6.224474907E-1,5.308032036E-1,2.133980751E0
7.230932137E0,7.000730038E-1,5.320038795E-1,2.194262505E0
7.235782657E0,7.208631039E-1,5.635752678E-1,2.178437233E0
7.240633907E0,6.871231794E-1,6.227760315E-1,2.175231934E0
7.245484272E0,6.348739862E-1,7.285184860E-1,2.175183296E0
7.250333960E0,5.927839279E-1,8.687801361E-1,2.163943291E0
7.255184480E0,5.056048632E-1,9.741353989E-1,2.062620163E0
7.260035730E0,4.332656860E-1,1.066039085E0,1.998131752E0
7.264886199E0,4.332368374E-1,1.178380966E0,1.917616844E0
7.269735835E0,4.576527476E-1,1.246910095E0,1.751570702E0
7.274586303E0,5.582848787E-1,1.274653435E0,1.447066307E0
7.279437553E0,6.983040571E-1,1.334046841E0,1.106611252E0
7.284288022E0,8.598717451E-1,1.469218254E0,7.748928070E-1
7.289137657E0,1.008506775E0,1.683573246E0,5.611133575E-1
7.293988178E0,1.071436048E0,1.882734776E0,5.072364807E-1
7.298839428E0,1.043085575E0,2.022915840E0,5.594034195E-1
7.303689897E0,9.719606042E-1,2.064892769E0,8.961305618E-1
7.308539480E0,9.288427234E-1,1.947328568E0,1.552742004E0
7.313390001E0,8.913218975E-1,1.682618618E0,2.335293770E0
7.318241251E0,8.107763529E-1,1.230117321E0,3.179473877E0
7.323091720E0,6.739817262E-1,6.920881271E-1,3.978308678E0
7.327941355E0,5.398181677E-1,1.703057289E-1,4.830820084E0
7.332791876E0,4.550760090E-1,-4.467525482E-1,5.678261757E0
7.337643126E0,4.186365306E-1,-1.086947680E0,6.493305206E0
7.342493491E0,4.725849926E-1,-1.618396044E0,7.231842041E0
7.347343178E0,5.530986786E-1,-2.055476189E0,7.677652359E0
7.352193699E0,6.861039400E-1,-2.362173557E0,7.815370560E0
7.357044949E0,8.254826069E-1,-2.555248737E0,7.682245255E0
7.361895418E0,9.557265043E-1,-2.629559517E0,7.334332466E0
7.366745001E0,1.061153173E0,-2.586760998E0,6.748476028E0
7.371595522E0,1.166220307E0,-2.447067499E0,5.970561981E0
7.376446772E0,1.259332776E0,-2.237452984E0,5.096438408E0
7.381297241E0,1.309460163E0,-1.960225821E0,4.159292221E0
7.386146876E0,1.367313504E0,-1.734571457E0,3.251982689E0
7.390997397E0,1.481775761E0,-1.478190660E0,2.376261711E0
7.395848647E0,1.647283316E0,-1.227601290E0,1.631598473E0
7.400699116E0,1.796896219E0,-9.856874943E-1,9.882717133E-1
7.405548699E0,1.923872590E0,-7.670934200E-1,4.930505753E-1
7.410399220E0,2.029235840E0,-6.153447628E-1,9.237670898E-2
7.415250470E0,2.068988323E0,-5.097470284E-1,-1.785497665E-1
7.420100939E0,2.114292622E0,-4.603853226E-1,-3.803749084E-1
7.424950574E0,2.078363419E0,-4.681458473E-1,-5.639648438E-1
7.429801043E0,2.041229486E0,-5.289697647E-1,-7.396812439E-1
7.434652345E0,1.949094534E0,-5.983943939E-1,-8.890533447E-1
7.439502710E0,1.814823627E0,-6.968822479E-1,-1.034180641E0
7.444352397E0,1.685186148E0,-7.806806564E-1,-1.105999947E0
7.449202918E0,1.587353349E0,-8.591897488E-1,-1.226582527E0
7.454054168E0,1.449844122E0,-9.781386852E-1,-1.381336212E0
7.458904637E0,1.322909236E0,-1.090181828E0,-1.543606281E0
7.463754220E0,1.205781102E0,-1.188842535E0,-1.753706932E0
7.468604741E0,1.068626404E0,-1.263136148E0,-2.003974438E0
7.473455991E0,9.511890411E-1,-1.369199753E0,-2.212520123E0
7.478306460E0,8.618935347E-1,-1.433931589E0,-2.455441475E0
7.483156095E0,7.900545597E-1,-1.508527040E0,-2.691666603E0
7.488006616E0,7.537397146E-1,-1.574489832E0,-2.992728710E0
7.492857866E0,7.017387152E-1,-1.613309622E0,-3.229253292E0
7.497708230E0,6.600432396E-1,-1.661546469E0,-3.398642063E0
7.502557918E0,6.256768703E-1,-1.717574120E0,-3.491121769E0
7.507408439E0,5.912555456E-1,-1.798740149E0,-3.566310406E0
7.512259689E0,5.133993626E-1,-1.852966785E0,-3.624035835E0
7.517110157E0,4.279497862E-1,-1.911678314E0,-3.645084858E0
7.521959793E0,3.876041174E-1,-1.944103718E0,-3.667623043E0
7.526810262E0,3.467631340E-1,-1.957416058E0,-3.686940193E0
7.531661512E0,2.864089012E-1,-1.944671154E0,-3.700554848E0
7.536511980E0,2.615158558E-1,-1.910751343E0,-3.715649128E0
7.541361616E0,2.555432320E-1,-1.822070599E0,-3.701183796E0
7.546212137E0,2.327411175E-1,-1.721731424E0,-3.673923969E0
7.551063387E0,2.339158058E-1,-1.609293699E0,-3.677143097E0
7.555913855E0,2.903587818E-1,-1.443821907E0,-3.675048351E0
7.560763439E0,3.427673578E-1,-1.306497574E0,-3.617426872E0
7.565613960E0,3.939262629E-1,-1.153754473E0,-3.542780399E0
7.570465210E0,4.610382318E-1,-1.004413843E0,-3.458380222E0
7.575315678E0,5.203540325E-1,-8.413956165E-1,-3.421761513E0
7.580165314E0,5.961785316E-1,-6.860208511E-1,-3.361169338E0
7.585015835E0,6.288409233E-1,-5.669660568E-1,-3.307695866E0
7.589867085E0,6.707718372E-1,-4.219167233E-1,-3.242297649E0
7.594717449E0,6.928074360E-1,-2.843279839E-1,-3.248790264E0
7.599567137E0,7.114061117E-1,-9.683609009E-2,-3.243433475E0
7.604417657E0,7.430049181E-1,1.070895195E-1,-3.178511143E0
7.609268907E0,7.374551296E-1,3.082962036E-1,-3.097116947E0
7.614119376E0,7.330425978E-1,4.709677696E-1,-3.004080296E0
7.618969012E0,7.463024855E-1,5.977454185E-1,-2.906722546E0
7.623819480E0,7.487747669E-1,7.053952217E-1,-2.795427799E0
7.628670730E0,7.619450092E-1,7.559032440E-1,-2.624898434E0
7.633521199E0,7.600368261E-1,8.425998688E-1,-2.392721176E0
7.638370835E0,7.743818760E-1,9.227952957E-1,-2.149346352E0
7.643221355E0,7.603099346E-1,9.750151634E-1,-1.846847534E0
7.648072605E0,7.644029856E-1,1.020998955E0,-1.492375374E0
7.652923074E0,7.563182116E-1,1.039538860E0,-1.126675606E0
7.657772657E0,7.198082209E-1,1.047313690E0,-8.357210159E-1
7.662623178E0,6.671617031E-1,1.032195568E0,-5.403709412E-1
7.667474428E0,6.033817530E-1,1.008376598E0,-3.026752472E-1
7.672324897E0,5.235459805E-1,1.025812626E0,-1.248369217E-1
7.677174532E0,3.938412666E-1,1.041191578E0,-4.737854004E-2
7.682025053E0,2.828868628E-1,1.104743481E0,3.011417389E-2
7.686876251E0,1.540011168E-1,1.137101650E0,1.125001907E-1
7.691726720E0,8.880257607E-3,1.152360439E0,1.854524612E-1
7.696576355E0,-1.053744555E-1,1.217192650E0,2.513999939E-1
7.701426876E0,-1.847265959E-1,1.254884243E0,3.892002106E-1
7.706278126E0,-2.294731140E-1,1.279373169E0,5.822095871E-1
7.711128595E0,-2.158995867E-1,1.288130760E0,7.706298828E-1
7.715978178E0,-1.995062828E-1,1.257374287E0,8.969421387E-1
7.720828699E0,-1.519067287E-1,1.211183548E0,1.047192574E0
7.725679949E0,-8.263194561E-2,1.240258694E0,1.269276619E0
7.730530418E0,1.653790474E-3,1.243783474E0,1.549011230E0
7.735380053E0,1.492977142E-2,1.272184849E0,1.857556343E0
7.740230574E0,3.873610497E-2,1.306336403E0,2.137505531E0
7.745081824E0,3.988897800E-2,1.315198421E0,2.381752968E0
7.749932189E0,3.316819668E-2,1.306098938E0,2.633399010E0
7.754781876E0,4.282283783E-2,1.312628269E0,2.835061073E0
7.759632397E0,6.475853920E-2,1.325151443E0,3.010869026E0
7.764483647E0,9.699547291E-2,1.338854790E0,3.163334846E0
7.769334116E0,1.090197563E-1,1.377594471E0,3.251968384E0
7.774183751E0,1.536661386E-1,1.389076710E0,3.224103928E0
7.779034220E0,1.639462709E-1,1.425886631E0,3.094265938E0
7.783885470E0,1.607154608E-1,1.469154358E0,2.845577240E0
7.788735939E0,9.065818787E-2,1.566946030E0,2.554448128E0
7.793585574E0,2.710020542E-2,1.671804905E0,2.234900475E0
7.798436095E0,-5.943787098E-2,1.812994003E0,1.946307182E0
7.803287345E0,-1.220281124E-1,1.945634842E0,1.692927361E0
7.808137814E0,-1.183650494E-1,2.120791435E0,1.457402229E0
7.812987397E0,-8.049046993E-2,2.248853683E0,1.332103729E0
7.817837918E0,-4.214012623E-2,2.323547840E0,1.302052498E0
7.822689168E0,-2.440214157E-2,2.338491440E0,1.503112793E0
7.827539637E0,-1.899278164E-2,2.260840416E0,1.863152504E0
7.832389272E0,2.070069313E-3,2.038318157E0,2.382147789E0
7.837239793E0,-3.330957890E-2,1.752125263E0,3.010179520E0
7.842090991E0,-6.837916374E-2,1.358872890E0,3.601761818E0
7.846941460E0,-1.018058062E-1,9.225969315E-1,4.088170052E0
7.851791095E0,-1.735334396E-1,4.641752243E-1,4.436553955E0
7.856641616E0,-2.828052044E-1,-2.488422394E-2,4.736388206E0
7.861492866E0,-3.981095552E-1,-5.073790550E-1,4.983589172E0
7.866343335E0,-5.049327612E-1,-9.632308483E-1,5.097700119E0
7.871192918E0,-5.990297794E-1,-1.341532230E0,5.015105247E0
7.876043439E0,-7.009491920E-1,-1.672354460E0,4.707801819E0
7.880894689E0,-8.270182610E-1,-1.930641890E0,4.236141205E0
7.885745157E0,-9.767508507E-1,-2.079038620E0,3.609989166E0
7.890594793E0,-1.111442089E0,-2.135122538E0,2.973033905E0
7.895445314E0,-1.228073001E0,-2.137559414E0,2.291664124E0
7.900296564E0,-1.282812119E0,-2.100914478E0,1.721175194E0
7.905146928E0,-1.336830735E0,-2.010452509E0,1.182104111E0
7.909996616E0,-1.316614389E0,-1.848755836E0,7.265663147E-1
7.914847137E0,-1.248957276E0,-1.619550705E0,3.610429764E-1
7.919698387E0,-1.133478522E0,-1.400523663E0,8.489131927E-2
7.924548855E0,-1.010118723E0,-1.238141060E0,-6.903076172E-2
7.929398491E0,-8.321479559E-1,-1.138627291E0,-1.082458496E-1
7.934248960E0,-6.338434219E-1,-1.050674677E0,-2.597045898E-2
7.939100210E0,-3.944853544E-1,-1.028610229E0,6.995105743E-2
7.943950678E0,-1.557165384E-1,-1.011811972E0,1.625595093E-1
7.948800314E0,8.608448505E-2,-1.001957178E0,2.205400467E-1
7.953650835E0,2.625516057E-1,-1.000906229E0,2.604837418E-1
7.958502085E0,4.105544090E-1,-1.012836218E0,2.893352509E-1
7.963352553E0,4.735614955E-1,-1.028073072E0,2.999286652E-1
7.968202137E0,5.044667721E-1,-1.070753813E0,3.091182709E-1
7.973052657E0,5.224049091E-1,-1.143669128E0,2.429685593E-1
7.977903907E0,5.005507469E-1,-1.218298197E0,1.422529221E-1
7.982754376E0,4.577482641E-1,-1.340518951E0,5.741596222E-2
7.987604012E0,4.058718383E-1,-1.446202993E0,-1.850128174E-2
7.992454532E0,3.685255945E-1,-1.569166899E0,-1.212425232E-1
7.997305730E0,3.193079531E-1,-1.685928345E0,-2.003421783E-1
8.002156199E0,3.034079969E-1,-1.785021305E0,-2.938632965E-1
8.007005835E0,2.798493803E-1,-1.854986429E0,-4.135274887E-1
8.011856355E0,2.769166529E-1,-1.927203655E0,-5.376892090E-1
8.016707605E0,2.275806069E-1,-1.973517895E0,-6.373834610E-1
8.021558074E0,1.770956516E-1,-2.013598680E0,-7.554502487E-1
8.026407657E0,1.348719001E-1,-2.069298744E0,-8.773756027E-1
8.031258178E0,7.459729910E-2,-2.069196224E0,-9.814777374E-1
8.036109428E0,1.771157980E-2,-2.094547510E0,-1.086977959E0
8.040959897E0,-4.766660929E-2,-2.104892254E0,-1.220068455E0
8.045809532E0,-8.321630955E-2,-2.112494469E0,-1.361441612E0
8.050660053E0,-1.082348228E-1,-2.102849722E0,-1.501616478E0
8.055511303E0,-1.490124464E-1,-2.052397490E0,-1.721729279E0
8.060361668E0,-1.869294047E-1,-1.989289284E0,-1.950284958E0
8.065211355E0,-1.839435101E-1,-1.910992146E0,-2.173022270E0
8.070061876E0,-1.810177565E-1,-1.822089672E0,-2.421161175E0
8.074913126E0,-1.760774255E-1,-1.743633270E0,-2.637547493E0
8.079763595E0,-1.716234684E-1,-1.630073786E0,-2.855758667E0
8.084613230E0,-1.727515459E-1,-1.528890133E0,-3.030582428E0
8.089463699E0,-1.942948699E-1,-1.401545286E0,-3.195724010E0
8.094314949E0,-1.886132360E-1,-1.312795401E0,-3.351132870E0
8.099165418E0,-2.304092646E-1,-1.252905607E0,-3.453890324E0
8.104015053E0,-2.482510805E-1,-1.162120342E0,-3.530368328E0
8.108865574E0,-2.807095051E-1,-1.081215620E0,-3.594922066E0
8.113716824E0,-2.801215649E-1,-9.645240307E-1,-3.556829453E0
8.118567293E0,-2.965009212E-1,-8.550679684E-1,-3.464041233E0
8.123416876E0,-3.078092337E-1,-7.718658447E-1,-3.338145256E0
8.128267397E0,-2.775410414E-1,-6.980400085E-1,-3.097877026E0
8.133118647E0,-2.292697430E-1,-6.453316212E-1,-2.870173454E0
8.137969116E0,-1.767897606E-1,-6.017644405E-1,-2.645400524E0
8.142818751E0,-1.316742897E-1,-5.627052784E-1,-2.413876534E0
8.147669220E0,-9.605181217E-2,-5.233590603E-1,-2.139728069E0
8.152520470E0,-6.484389305E-2,-4.792006016E-1,-1.868287086E0
8.157370939E0,-6.904768944E-2,-4.065337181E-1,-1.647262573E0
8.162220574E0,-4.832488298E-2,-3.250336647E-1,-1.409345150E0
8.167071095E0,-2.420675755E-2,-2.179718018E-1,-1.228683472E0
8.171922345E0,1.541548967E-2,-1.618828773E-1,-1.052601814E0
8.176772814E0,5.643647909E-2,-1.042537689E-1,-9.120831490E-1
8.181622397E0,5.835902691E-2,-3.333759308E-2,-7.424097061E-1
8.186472918E0,7.123765349E-2,1.270389557E-2,-6.178159714E-1
8.191324168E0,8.567348123E-2,5.032539368E-2,-5.332908630E-1
8.196174637E0,6.333199143E-2,1.081862450E-1,-4.791975021E-1
8.201024272E0,2.277499437E-2,1.866354942E-1,-4.413824081E-1
8.205874793E0,-3.117406368E-2,2.352080345E-1,-4.268760681E-1
8.210725991E0,-9.654670954E-2,3.043026924E-1,-4.046630859E-1
8.215576460E0,-1.494432688E-1,3.750743866E-1,-4.227342606E-1
8.220426095E0,-2.048606873E-1,4.455504417E-1,-4.334764481E-1
8.225276616E0,-2.557502985E-1,5.446729660E-1,-4.179096222E-1
8.230127866E0,-2.806977034E-1,6.176652908E-1,-3.857717514E-1
8.234978335E0,-2.870730162E-1,6.699752808E-1,-3.206987381E-1
8.239827918E0,-2.389540672E-1,7.161707878E-1,-1.726236343E-1
8.244678439E0,-1.792159677E-1,7.589015961E-1,5.614280701E-3
8.249529689E0,-1.099979281E-1,7.936029434E-1,2.234363556E-1
8.254380157E0,-3.126168251E-2,7.748966217E-1,4.329423904E-1
8.259229793E0,7.857125998E-2,7.409939766E-1,6.533317566E-1
8.264080314E0,1.621709764E-1,6.488118172E-1,8.654956818E-1
8.268931564E0,2.576704919E-1,5.724892616E-1,1.074244499E0
8.273781928E0,3.339846730E-1,5.019197464E-1,1.287044525E0
8.278631616E0,3.911596835E-1,4.607505798E-1,1.511201859E0
8.283482137E0,4.341245294E-1,4.247736931E-1,1.770765305E0
8.288333387E0,4.560289979E-1,4.220657349E-1,2.011041641E0
8.293183855E0,4.905241132E-1,4.306025505E-1,2.215582848E0
8.298033439E0,5.208849907E-1,4.162874222E-1,2.341727257E0
8.302883960E0,5.565338135E-1,4.075403214E-1,2.418425560E0
8.307735210E0,6.171085835E-1,4.016132355E-1,2.472267151E0
8.312585678E0,6.882950068E-1,4.415569305E-1,2.450676918E0
8.317435314E0,7.412290573E-1,4.966588020E-1,2.355899811E0
8.322285835E0,7.568814754E-1,5.932497978E-1,2.238229752E0
8.327137085E0,7.304015160E-1,7.363257408E-1,2.066464424E0
8.331987553E0,6.756547689E-1,8.877797127E-1,1.864444733E0
8.336837137E0,6.088443995E-1,1.005233288E0,1.653328896E0
8.341687657E0,5.799958110E-1,1.112834454E0,1.401926994E0
8.346538907E0,6.385771036E-1,1.199201584E0,1.112320900E0
8.351389376E0,7.616610527E-1,1.275124073E0,7.168560028E-1
8.356238960E0,9.334115386E-1,1.379791260E0,3.561248779E-1
8.361089480E0,1.076360345E0,1.528689384E0,1.656532288E-1
8.365940730E0,1.154391766E0,1.661024094E0,1.993904114E-1
8.370791199E0,1.185111523E0,1.749275208E0,5.281839371E-1
8.375640835E0,1.175157189E0,1.708150387E0,1.125064850E0
8.380491355E0,1.155627131E0,1.509351254E0,1.908422470E0
8.385342605E0,1.168909550E0,1.193554878E0,2.725220680E0
8.390193074E0,1.209322333E0,7.913346291E-1,3.463539124E0
8.395042657E0,1.184299588E0,3.712520599E-1,4.073859215E0
8.399893178E0,1.137840390E0,-1.062064171E-1,4.786699295E0
8.404744428E0,1.087739229E0,-6.022458076E-1,5.469181061E0
8.409594897E0,1.013021946E0,-1.061413050E0,6.036368370E0
8.414444532E0,9.689770341E-1,-1.449957848E0,6.424962997E0
8.419295001E0,9.580788612E-1,-1.655260801E0,6.609958649E0
8.424146251E0,9.551566839E-1,-1.865766525E0,6.489588737E0
8.428996720E0,9.961404800E-1,-2.039871454E0,6.069608688E0
8.433846355E0,1.023914337E0,-2.006341696E0,5.467846870E0
8.438696876E0,1.012919784E0,-1.840636492E0,4.747094154E0
8.443548126E0,1.012037873E0,-1.631933928E0,3.948295593E0
8.448398595E0,9.979174137E-1,-1.461316109E0,3.114324570E0
8.453248178E0,1.036007166E0,-1.301333666E0,2.311532021E0
8.458098699E0,1.103688955E0,-1.059446573E0,1.548553467E0
8.462949949E0,1.215133667E0,-8.342533112E-1,8.865470886E-1
8.467800418E0,1.303599119E0,-6.260957718E-1,4.080801010E-1
8.472650053E0,1.427575707E0,-4.450168610E-1,1.216001511E-1
8.477500574E0,1.531427860E0,-2.872996330E-1,-7.651233673E-2
8.482351824E0,1.609723091E0,-1.799335480E-1,-1.512870789E-1
8.487202189E0,1.650057554E0,-1.166706085E-1,-2.063627243E-1
8.492051876E0,1.670613527E0,-1.272163391E-1,-1.922264099E-1
8.496902397E0,1.675160170E0,-2.107315063E-1,-1.786851883E-1
8.501753647E0,1.629066825E0,-3.095011711E-1,-1.538829803E-1
8.506604116E0,1.533326149E0,-4.522099495E-1,-1.608400345E-1
8.511453699E0,1.402318716E0,-6.201982498E-1,-2.159643173E-1
8.516304220E0,1.235664248E0,-7.805657387E-1,-3.260383606E-1
8.521155470E0,1.013482332E0,-9.463691711E-1,-4.712829590E-1
8.526005939E0,8.184570670E-1,-1.106783152E0,-6.199760437E-1
8.530855574E0,6.254932284E-1,-1.220079660E0,-7.594976425E-1
8.535706095E0,4.409399033E-1,-1.332938433E0,-9.107794762E-1
8.540557345E0,2.950676978E-1,-1.422441483E0,-1.044637680E0
8.545407710E0,1.941385567E-1,-1.463320494E0,-1.229976654E0
8.550257397E0,1.326697171E-1,-1.506634474E0,-1.435306072E0
8.555107918E0,1.004369259E-1,-1.538597107E0,-1.610167027E0
8.559959168E0,7.092255354E-2,-1.578827858E0,-1.797435760E0
8.564809637E0,2.733212709E-2,-1.589170933E0,-1.937287807E0
8.569659272E0,-1.513123512E-3,-1.598413467E0,-2.048895836E0
8.574509741E0,-4.423195124E-2,-1.598791599E0,-2.163684368E0
8.579360991E0,-8.144110441E-2,-1.597190619E0,-2.291356087E0
8.584211460E0,-1.437094212E-1,-1.590542316E0,-2.448936939E0
8.589061095E0,-1.614266038E-1,-1.566120386E0,-2.569820404E0
8.593911616E0,-2.012857199E-1,-1.566643238E0,-2.649418354E0
8.598762866E0,-2.509961724E-1,-1.550826073E0,-2.750237942E0
8.603613230E0,-2.865343094E-1,-1.570772648E0,-2.862949371E0
8.608462918E0,-3.294174671E-1,-1.573333502E0,-2.975843430E0
8.613313439E0,-3.843674064E-1,-1.548610687E0,-3.117796898E0
8.618164689E0,-4.372077584E-1,-1.508292913E0,-3.233958721E0
8.623015157E0,-4.642434716E-1,-1.442589521E0,-3.353207111E0
8.627864741E0,-4.967506528E-1,-1.375303030E0,-3.387160301E0
8.632715262E0,-5.058499575E-1,-1.320794344E0,-3.433942318E0
8.637566512E0,-5.131198168E-1,-1.259926558E0,-3.417024136E0
8.642416980E0,-4.804335237E-1,-1.195406199E0,-3.376984119E0
8.647266616E0,-4.174507856E-1,-1.115574360E0,-3.308921814E0
8.652117137E0,-3.412727118E-1,-1.018447638E0,-3.203131199E0
8.656968387E0,-2.567915320E-1,-9.019875526E-1,-3.097753525E0
8.661818751E0,-1.782555580E-1,-8.047664165E-1,-2.990233898E0
8.666668439E0,-8.868360519E-2,-7.198798656E-1,-2.784754276E0
8.671518960E0,-4.724621773E-3,-6.306257248E-1,-2.586607933E0
8.676370210E0,5.467271805E-2,-5.326614380E-1,-2.359675407E0
8.681220678E0,1.136568189E-1,-4.334282875E-1,-2.144487858E0
8.686070262E0,1.389611959E-1,-3.354620934E-1,-1.928978920E0
8.690920782E0,1.640567183E-1,-2.769479752E-1,-1.729928017E0
8.695772032E0,1.653432846E-1,-1.789717674E-1,-1.616604805E0
8.700622501E0,1.619625092E-1,-8.434200287E-2,-1.474277973E0
8.705472137E0,1.375117898E-1,-7.412433624E-3,-1.312510014E0
8.710322657E0,9.018254280E-2,7.567739487E-2,-1.100150108E0
8.715173907E0,5.380672216E-2,1.101188660E-1,-9.401507378E-1
8.720024376E0,4.511052370E-2,1.826248169E-1,-7.897095680E-1
8.724873960E0,4.070144892E-2,2.573161125E-1,-6.631274223E-1
8.729724480E0,6.708288193E-2,3.151698112E-1,-5.675830841E-1
8.734575730E0,7.351797819E-2,3.755459785E-1,-5.342769623E-1
8.739426199E0,1.897096634E-2,4.410886765E-1,-5.107002258E-1
8.744275782E0,-2.007412910E-2,4.875650406E-1,-5.062427521E-1
8.749126303E0,-8.733338118E-2,5.702056885E-1,-5.019254684E-1
8.753977553E0,-1.160994768E-1,6.838831902E-1,-4.521827698E-1
8.758828022E0,-1.762939692E-1,7.855334282E-1,-3.738670349E-1
8.763677657E0,-2.155078650E-1,8.460583687E-1,-2.357292175E-1
8.768528178E0,-2.770299315E-1,8.628659248E-1,-5.685997009E-2
8.773379428E0,-3.062201142E-1,8.574752808E-1,7.660198212E-2
8.778229793E0,-3.317893147E-1,8.704085350E-1,1.982736588E-1
8.783079480E0,-3.657742739E-1,9.013838768E-1,3.178672791E-1
8.787930001E0,-3.726461530E-1,8.981394768E-1,4.973239899E-1
8.792781251E0,-3.710684776E-1,8.701596260E-1,7.127742767E-1
8.797631720E0,-3.249365091E-1,8.608131409E-1,9.066534042E-1
8.802481355E0,-2.505089045E-1,8.606696129E-1,1.081350327E0
8.807331824E0,-1.808637381E-1,8.676333427E-1,1.210463524E0
8.812183074E0,-8.702719212E-2,8.604722023E-1,1.324997902E0
8.817033543E0,-1.641428471E-2,9.087681770E-1,1.412937164E0
8.821883178E0,1.451146603E-2,9.552049637E-1,1.471869469E0
8.826733699E0,1.799106598E-2,1.021517754E0,1.556727409E0
8.831584949E0,1.574546099E-2,1.086298943E0,1.619598389E0
8.836435314E0,-6.488621235E-3,1.111347675E0,1.622227669E0
8.841285001E0,-2.694380283E-2,1.144630432E0,1.576617241E0
8.846135522E0,-2.901196480E-2,1.181497097E0,1.489908218E0
8.850986772E0,-6.332027912E-2,1.215095043E0,1.333234787E0
8.855837241E0,-9.699004889E-2,1.262310982E0,1.113707542E0
8.860686824E0,-1.876252890E-1,1.330417633E0,9.460897446E-1
8.865537345E0,-2.900074720E-1,1.410050869E0,7.823352814E-1
8.870388595E0,-3.879317641E-1,1.484520912E0,6.390781403E-1
8.875239064E0,-4.866148233E-1,1.532270908E0,5.043153763E-1
8.880088699E0,-5.458768606E-1,1.574925900E0,4.281558990E-1
8.884939220E0,-5.520029068E-1,1.591125965E0,3.529872894E-1
8.889790470E0,-5.631806850E-1,1.590783596E0,2.665948868E-1
8.894640835E0,-4.946305752E-1,1.629509926E0,1.804695129E-1
8.899490522E0,-4.620611668E-1,1.659677029E0,2.546072006E-1
8.904341043E0,-4.250357151E-1,1.669660568E0,5.460224152E-1
8.909192293E0,-3.786610961E-1,1.611678123E0,1.066466331E0
8.914042762E0,-3.412768841E-1,1.478540421E0,1.748922348E0
8.918892345E0,-3.326075077E-1,1.222144127E0,2.598451614E0
8.923742866E0,-3.125002980E-1,8.398137093E-1,3.455147743E0
8.928594116E0,-3.246118426E-1,4.097919464E-1,4.247942924E0
8.933444585E0,-4.083437324E-1,-3.755950928E-2,4.941609383E0
8.938294220E0,-5.170280337E-1,-5.534424782E-1,5.565608978E0
8.943144689E0,-6.230255365E-1,-1.043345690E0,6.032286644E0
8.947995991E0,-7.203954458E-1,-1.494132042E0,6.356860161E0
8.952846355E0,-7.969006896E-1,-1.842733860E0,6.461293221E0
8.957696043E0,-8.675163984E-1,-2.128804684E0,6.308112144E0
8.962546564E0,-9.434561729E-1,-2.274610043E0,5.852521896E0
8.967397814E0,-9.932065010E-1,-2.269286394E0,5.193124771E0
8.972248282E0,-1.049656510E0,-2.149628162E0,4.373335838E0
8.977097866E0,-1.079095244E0,-1.915894270E0,3.505526543E0
8.981948387E0,-1.054506898E0,-1.678009748E0,2.670753479E0
8.986799637E0,-1.006174922E0,-1.483412027E0,1.866230965E0
8.991650105E0,-9.306789041E-1,-1.252089262E0,1.084113121E0
8.996499741E0,-8.382698894E-1,-1.032943726E0,3.978080750E-1
9.001350210E0,-7.743319273E-1,-7.885925770E-1,-1.695623398E-1
9.006201460E0,-7.049307823E-1,-5.580656528E-1,-6.260299683E-1
9.011051928E0,-6.507837772E-1,-3.708562851E-1,-9.795451164E-1
9.015901564E0,-6.084894538E-1,-2.205815315E-1,-1.142395020E0
9.020752085E0,-5.599257946E-1,-1.370258331E-1,-1.222890377E0
9.025603335E0,-4.964735508E-1,-1.332101822E-1,-1.207273483E0
9.030453803E0,-3.664267659E-1,-1.675128937E-1,-1.148592472E0
9.035303387E0,-2.018224597E-1,-2.128825188E-1,-1.018461227E0
9.040153907E0,-3.976416588E-2,-2.925405502E-1,-8.913779259E-1
9.045005157E0,1.039908528E-1,-3.630895615E-1,-7.554988861E-1
9.049855626E0,2.350493968E-1,-4.414973259E-1,-6.035118103E-1
9.054705262E0,2.961567938E-1,-5.306117535E-1,-4.973669052E-1
9.059555730E0,3.088204563E-1,-6.458122730E-1,-3.719148636E-1
9.064406980E0,3.085880578E-1,-7.618598938E-1,-2.601137161E-1
9.069257449E0,2.997216880E-1,-8.944849968E-1,-1.732292175E-1
9.074107085E0,2.842108905E-1,-1.037653923E0,-1.058855057E-1
9.078957605E0,2.398932278E-1,-1.180616140E0,-7.184410095E-2
9.083808855E0,2.069081366E-1,-1.312704802E0,-1.087369919E-1
9.088659220E0,1.607263386E-1,-1.461311340E0,-1.825389862E-1
9.093508907E0,1.414840519E-1,-1.531687021E0,-3.239126205E-1
9.098359428E0,9.120392799E-2,-1.603751421E0,-5.013179779E-1
9.103210678E0,3.789722919E-2,-1.642127514E0,-7.193412781E-1
9.108061147E0,-5.738753080E-2,-1.678111076E0,-9.731383324E-1
9.112910730E0,-9.672814608E-2,-1.661553860E0,-1.202884674E0
9.117761251E0,-1.662293077E-1,-1.642527103E0,-1.423058033E0
9.122612501E0,-1.939484477E-1,-1.594082117E0,-1.636353016E0
9.127462970E0,-2.324409485E-1,-1.534528732E0,-1.907723904E0
9.132312605E0,-2.335867882E-1,-1.491927147E0,-2.148903370E0
9.137163126E0,-2.334416509E-1,-1.424591064E0,-2.410620689E0
9.142014324E0,-2.078884244E-1,-1.322288275E0,-2.635774136E0
9.146864793E0,-1.900367737E-1,-1.215451002E0,-2.807975292E0
9.151714428E0,-1.724137068E-1,-1.148670912E0,-2.932460308E0
9.156564949E0,-1.572825909E-1,-1.061381102E0,-3.045508862E0
9.161416199E0,-1.441641450E-1,-9.893195629E-1,-3.082631588E0
9.166266668E0,-1.089579463E-1,-9.226284027E-1,-3.067965508E0
9.171116251E0,-7.053092122E-2,-8.638474941E-1,-3.066052437E0
9.175966772E0,-5.311396718E-2,-8.343837261E-1,-3.060213089E0
9.180818022E0,-1.608157158E-2,-7.984383106E-1,-3.038454533E0
9.185668491E0,-2.193614841E-2,-7.919356823E-1,-2.984054089E0
9.190518126E0,-3.956267238E-2,-7.603213787E-1,-2.901605606E0
9.195368595E0,-5.462667346E-2,-7.540018559E-1,-2.752806664E0
9.200219845E0,-8.872708678E-2,-7.327773571E-1,-2.590115070E0
9.205070314E0,-1.083096564E-1,-7.424647808E-1,-2.420536995E0
9.209919949E0,-1.325993538E-1,-7.761693001E-1,-2.243930817E0
9.214770470E0,-1.469847560E-1,-8.008089066E-1,-2.040957451E0
9.219621668E0,-1.970940530E-1,-8.042757511E-1,-1.859560490E0
9.224472137E0,-2.610980272E-1,-7.822959423E-1,-1.685119629E0
9.229321772E0,-2.888436317E-1,-7.636010647E-1,-1.563057899E0
9.234172293E0,-3.258891404E-1,-6.978676319E-1,-1.445543289E0
9.239023543E0,-3.481804729E-1,-5.998735428E-1,-1.310861588E0
9.243874012E0,-3.436490297E-1,-4.959628582E-1,-1.163810730E0
9.248723595E0,-3.458048105E-1,-4.242427349E-1,-1.026000977E0
9.253574116E0,-3.474188149E-1,-3.558685780E-1,-9.237742424E-1
9.258425366E0,-3.385357559E-1,-2.910513878E-1,-8.210954666E-1
9.263275835E0,-3.358291686E-1,-2.104439735E-1,-7.085008621E-1
9.268125470E0,-3.512484431E-1,-1.234741211E-1,-6.243391037E-1
9.272975939E0,-3.849803805E-1,-3.254318237E-2,-6.068334579E-1
9.277827189E0,-4.225004613E-1,6.499910355E-2,-5.603799820E-1
9.282677657E0,-4.689498246E-1,1.525659561E-1,-5.855331421E-1
9.287527293E0,-5.367920399E-1,2.444567680E-1,-5.650300980E-1
9.292377814E0,-5.641166568E-1,3.503808975E-1,-5.085763931E-1
9.297229064E0,-5.533635020E-1,4.560875893E-1,-4.162750244E-1
9.302079532E0,-5.073582530E-1,5.615816116E-1,-3.431844711E-1
9.306929116E0,-4.478685856E-1,6.454534531E-1,-2.439126968E-1
9.311779637E0,-3.654459119E-1,7.340364456E-1,-9.219455719E-2
9.316630887E0,-2.697014809E-1,8.037381172E-1,1.523828506E-1
9.321481355E0,-1.913963854E-1,8.521399498E-1,4.084463120E-1
9.326330939E0,-1.133512855E-1,8.746476173E-1,7.165651321E-1
9.331181460E0,-4.224807024E-2,8.736262321E-1,1.095848083E0
9.336032710E0,3.130078316E-3,8.228502274E-1,1.474462509E0
9.340883178E0,2.319785953E-2,7.172775269E-1,1.802371979E0
9.345732814E0,7.055667043E-2,6.021833420E-1,2.091712952E0
9.350583282E0,1.328831613E-1,4.634380341E-1,2.306546211E0
9.355434532E0,1.863686144E-1,3.652558327E-1,2.468683243E0
9.360285001E0,2.715151608E-1,3.195405006E-1,2.587752342E0
9.365134637E0,3.142610788E-1,3.046050072E-1,2.740380287E0
9.369985157E0,3.671312928E-1,2.653031349E-1,2.864412308E0
9.374836407E0,4.158898592E-1,2.611284256E-1,2.921800613E0
9.379686772E0,4.796889722E-1,2.940654755E-1,2.986948967E0
9.384536460E0,5.438653231E-1,3.400225639E-1,2.945141792E0
9.389386980E0,5.965657234E-1,4.175949097E-1,2.856579781E0
9.394238230E0,6.660449505E-1,5.052919388E-1,2.702148438E0
9.399088699E0,7.186663747E-1,6.223087311E-1,2.575146675E0
9.403938282E0,7.063516378E-1,7.160639763E-1,2.410949707E0
9.408788803E0,6.455949545E-1,8.439750671E-1,2.202431679E0
9.413640053E0,5.744501352E-1,9.825668335E-1,1.968517303E0
9.418490522E0,5.070567131E-1,1.084733009E0,1.694488525E0
9.423340157E0,4.793655872E-1,1.186849594E0,1.420795441E0
9.428190626E0,5.100249052E-1,1.256416321E0,1.146872520E0
9.433041876E0,5.770634413E-1,1.325636387E0,8.553457260E-1
9.437892345E0,6.968641281E-1,1.426309109E0,6.414489746E-1
9.442741980E0,8.382042646E-1,1.552136421E0,5.691013336E-1
9.447592501E0,1.024865746E0,1.704248905E0,6.159210205E-1
9.452443751E0,1.166204810E0,1.843033314E0,7.954959869E-1
9.457294116E0,1.351328015E0,1.871277332E0,1.181346893E0
9.462143803E0,1.490446329E0,1.746577263E0,1.775385857E0
9.466994324E0,1.623428226E0,1.454473972E0,2.498718262E0
9.471845574E0,1.713040829E0,1.087674618E0,3.260834694E0
9.476696043E0,1.743207455E0,7.074871063E-1,3.961875916E0
9.481545626E0,1.748124719E0,2.195124626E-1,4.662429810E0
9.486396147E0,1.621018887E0,-2.724237442E-1,5.353847504E0
9.491247397E0,1.527388573E0,-7.627315521E-1,6.003583908E0
9.496097866E0,1.477437496E0,-1.227094412E0,6.545845985E0
9.500947501E0,1.468553782E0,-1.619711161E0,6.902906418E0
9.505797970E0,1.466625452E0,-1.968973637E0,6.942097664E0
9.510649220E0,1.446805954E0,-2.178244829E0,6.846158028E0
9.515499689E0,1.412788868E0,-2.311384678E0,6.565734863E0
9.520349324E0,1.372955561E0,-2.334029913E0,6.020389557E0
9.525199845E0,1.330265045E0,-2.258602142E0,5.308539391E0
9.530051095E0,1.335939288E0,-2.075554848E0,4.466136932E0
9.534901460E0,1.345665932E0,-1.855933905E0,3.600475311E0
9.539751147E0,1.389746904E0,-1.648479462E0,2.725147247E0
9.544601668E0,1.443877459E0,-1.494302511E0,1.944407463E0
9.549452918E0,1.498784065E0,-1.290986300E0,1.221323013E0
9.554303387E0,1.555106997E0,-1.091880083E0,6.219396591E-1
9.559152970E0,1.618461132E0,-8.906061649E-1,1.094427109E-1
9.564003491E0,1.670492887E0,-7.622265816E-1,-3.744125366E-1
9.568854741E0,1.690678596E0,-6.194772720E-1,-7.967500687E-1
9.573705210E0,1.691756010E0,-5.018329620E-1,-1.139176369E0
9.578554845E0,1.672067642E0,-4.416193962E-1,-1.421555042E0
9.583405314E0,1.625504494E0,-4.074225426E-1,-1.632142067E0
9.588256564E0,1.562252045E0,-4.034414291E-1,-1.785694599E0
9.593107032E0,1.492309451E0,-4.488396645E-1,-1.934856892E0
9.597956668E0,1.430116057E0,-5.343642235E-1,-2.077041626E0
9.602807137E0,1.341817617E0,-6.365756989E-1,-2.190465450E0
9.607658439E0,1.231697202E0,-7.275362015E-1,-2.320180416E0
9.612508803E0,1.113649487E0,-8.105216026E-1,-2.403516769E0
9.617358491E0,1.042056322E0,-9.341850281E-1,-2.495091438E0
9.622209012E0,9.803833365E-1,-1.037167072E0,-2.563354492E0
9.627060262E0,9.282510281E-1,-1.122808218E0,-2.610224724E0
9.631910730E0,8.925000429E-1,-1.256518126E0,-2.668762207E0
9.636760314E0,8.395029306E-1,-1.371852160E0,-2.733868599E0
9.641610835E0,8.024873137E-1,-1.450259447E0,-2.805253029E0
9.646462085E0,7.500592470E-1,-1.511238337E0,-2.942540646E0
9.651312553E0,7.007290721E-1,-1.538072348E0,-3.117025375E0
9.656162137E0,6.207544804E-1,-1.554836988E0,-3.256895542E0
9.661012657E0,5.507533550E-1,-1.544763565E0,-3.371800900E0
9.665863907E0,5.170933604E-1,-1.495836020E0,-3.459435940E0
9.670714376E0,5.007272959E-1,-1.462645769E0,-3.543992519E0
9.675564012E0,4.659025371E-1,-1.399280071E0,-3.642462254E0
9.680414480E0,4.439423978E-1,-1.345860004E0,-3.724043369E0
9.685265730E0,4.374717772E-1,-1.280407906E0,-3.772244930E0
9.690116199E0,4.252845943E-1,-1.188233137E0,-3.825539112E0
9.694965835E0,4.292569458E-1,-1.107233047E0,-3.853023529E0
9.699816355E0,4.331654608E-1,-1.039530754E0,-3.835695267E0
9.704667605E0,3.990696371E-1,-9.466123581E-1,-3.790452480E0
9.709517970E0,4.062295258E-1,-9.024741650E-1,-3.729344368E0
9.714367657E0,3.688580692E-1,-8.615841866E-1,-3.669116020E0
9.719218178E0,3.464886546E-1,-8.213829994E-1,-3.590755939E0
9.724069428E0,3.296017647E-1,-7.917022705E-1,-3.494125366E0
9.728919897E0,2.894654274E-1,-7.250666618E-1,-3.340785503E0
9.733769480E0,2.476502061E-1,-6.770286560E-1,-3.135297298E0
9.738620001E0,2.156892419E-1,-6.216578484E-1,-2.934931278E0
9.743471251E0,2.077157497E-1,-5.595722198E-1,-2.748925686E0
9.748321720E0,1.900666356E-1,-5.106329918E-1,-2.555359364E0
9.753171303E0,2.106072903E-1,-4.609270096E-1,-2.287042141E0
9.758021824E0,2.190145254E-1,-4.226469994E-1,-2.051545143E0
9.762873074E0,2.080262303E-1,-4.011292458E-1,-1.838961601E0
9.767723543E0,1.944790483E-1,-3.536739349E-1,-1.625147343E0
9.772573178E0,2.020993233E-1,-2.802891731E-1,-1.429264069E0
9.777423699E0,1.421418190E-1,-1.857886314E-1,-1.282396317E0
9.782274897E0,6.226378679E-2,-8.220195770E-2,-1.153390884E0
9.787125366E0,-5.698961020E-2,3.082180023E-2,-1.006588459E0
9.791975001E0,-1.532230377E-1,1.225872040E-1,-8.732924461E-1
9.796825522E0,-2.715748549E-1,2.268338203E-1,-7.416143417E-1
9.801676772E0,-3.472119570E-1,3.080229759E-1,-5.638871193E-1
9.806527137E0,-4.324697852E-1,3.665399551E-1,-4.192304611E-1
9.811376824E0,-4.864389896E-1,4.434661865E-1,-3.101911545E-1
9.816227345E0,-5.424522758E-1,5.174827576E-1,-1.794414520E-1
9.821078595E0,-5.956147909E-1,5.870270729E-1,-5.376720428E-2
9.825929064E0,-6.526252031E-1,6.761450768E-1,8.832645416E-2
